alt barom GPS_La GPS_Lo Gx Gy Gz Ax Ay Az Mx My Mz t
1.13 995.14 4053.99 7452.04 2.36 0.55 0.31 -0.03 -0.00 1.01 0.88 0.39 -0.45 442.355
0.90 995.16 4053.99 7452.04 2.32 0.06 0.67 -0.03 -0.01 1.0 0.88 0.39 -0.44 442.949
0.90 995.16 4053.99 7452.04 2.58 0.14 0.40 -0.03 -0.01 1.0 0.88 0.39 -0.45 443.357
0.76 995.18 4053.99 7452.04 2.53 0.37 0.56 -0.03 -0.01 1.0 0.88 0.39 -0.45 443.947
0.96 995.16 4053.99 7452.04 2.31 0.14 0.38 -0.03 -0.01 1.0 0.87 0.39 -0.44 444.359
0.97 995.16 4053.99 7452.04 2.74 0.31 0.31 -0.03 -0.01 1.0 0.87 0.39 -0.44 444.938
0.81 995.17 4053.99 7452.04 2.46 0.67 0.16 -0.03 -0.01 1.01 0.88 0.39 -0.44 445.362
1.08 995.14 4053.99 7452.04 0.20 0.24 0.46 -0.03 -0.01 1.0 0.88 0.40 -0.45 445.956
0.62 995.20 4053.99 7452.04 2.45 0.20 0.56 -0.03 -0.01 1.0 0.87 0.39 -0.45 446.364
0.41 995.22 4053.99 7452.04 2.37 0.31 0.48 -0.05 -0.01 1.01 0.88 0.39 -0.45 446.938
0.79 995.18 4053.99 7452.04 2.59 0.36 0.53 -0.03 -0.01 1.01 0.87 0.40 -0.45 447.367
1.16 995.13 4053.99 7452.04 2.41 0.45 0.58 -0.03 -0.01 1.0 0.88 0.39 -0.44 447.965
0.93 995.16 4053.99 7452.04 2.30 0.34 0.34 -0.03 -0.01 1.01 0.88 0.39 -0.44 448.368
0.61 995.20 4053.99 7452.04 2.01 0.25 0.41 -0.03 -0.01 1.0 0.88 0.39 -0.45 448.947
0.79 995.18 4053.99 7452.04 2.32 0.38 0.52 -0.03 -0.01 1.0 0.88 0.39 -0.45 449.371
0.62 995.20 4053.99 7452.04 2.20 0.34 0.35 -0.03 0.01 1.01 0.88 0.39 -0.44 449.898
2.26 995.00 4053.99 7452.04 -2.12 46.03 -16.42 -0.08 0.12 2.0 0.93 0.34 -0.50 450.375
13.99 993.62 4053.99 7452.04 3.80 -42.68 32.31 -0.22 0.21 2.0 0.95 0.37 -0.48 450.972
28.21 991.95 4053.99 7452.04 5.53 14.62 -5.01 -0.03 0.08 2.0 0.93 0.37 -0.43 451.377
49.83 989.40 4053.99 7452.04 0.56 50.06 -5.01 -0.14 0.07 1.12 0.99 0.36 -0.43 451.937
66.22 987.48 4053.99 7452.04 10.57 62.90 7.68 -0.06 0.06 0.21 1.02 0.36 -0.47 452.378
85.16 985.26 4053.99 7452.04 -1.35 64.36 8.02 0.03 0.02 0.01 1.06 0.36 -0.51 452.931
98.41 983.71 4053.99 7452.04 12.38 61.39 0.16 -0.05 0.04 -0.03 1.15 0.36 -0.48 453.389
111.14 982.23 4053.99 7452.04 2.50 50.30 -1.50 -0.03 0.00 -0.01 1.16 0.37 -0.44 453.984
120.30 981.16 4053.99 7452.04 11.09 45.45 -1.61 -0.03 0.00 0.0 1.16 0.37 -0.40 454.394
128.06 980.25 4053.99 7452.04 5.66 39.09 -9.13 -0.02 0.00 0.0 1.12 0.38 -0.37 454.972
133.04 979.67 4053.99 7452.04 2.70 34.09 -14.88 -0.03 0.01 0.01 1.05 0.37 -0.36 455.396
135.81 979.35 4053.99 7452.04 -7.56 34.53 -25.51 -0.04 0.03 0.01 0.95 0.36 -0.40 455.951
136.74 979.24 4053.99 7452.04 -27.79 -25.72 -19.07 2.00 1.70 -1.47 0.85 0.31 -0.50 456.399
136.84 979.23 4053.99 7452.04 64.09 -48.38 79.83 -0.47 2.00 -1.88 0.78 0.26 -0.39 456.92
132.94 979.69 4053.99 7452.04 83.11 -39.62 -85.03 -0.29 -0.11 -0.04 0.89 0.21 -0.11 457.402
124.68 980.65 4053.99 7452.04 140.93 -41.16 -88.05 -0.27 -0.27 -0.13 1.18 -0.47 -0.06 457.975
120.31 981.16 4053.99 7452.04 100.02 -84.08 -22.99 0.32 0.74 -0.06 1.46 -0.53 -0.52 458.404
109.77 982.39 4053.99 7452.04 -286.72 253.37 210.88 0.63 -1.15 -0.58 1.39 -0.36 -0.01 458.959
96.53 983.93 4053.99 7452.04 141.73 -121.82 -225.63 0.72 1.13 -1.59 1.36 -0.59 -0.30 459.407
94.28 984.20 4053.99 7452.04 151.23 15.18 -58.12 -0.16 0.21 -0.08 1.45 -0.29 -0.73 459.982
90.18 984.68 4053.99 7452.04 -139.58 83.24 100.57 -0.67 -0.06 -0.46 1.10 -0.32 0.04 460.408
84.56 985.33 4053.99 7452.04 -286.72 -64.84 65.68 -0.26 -0.32 -1.6 1.35 -0.53 -0.15 460.995
81.91 985.64 4053.96 7452.05 211.67 154.37 -43.62 0.32 0.02 -1.19 1.43 -0.51 -0.18 461.41
78.81 986.01 4053.96 7452.05 50.73 66.38 -123.49 -0.42 -0.03 -0.97 0.85 -0.45 -0.24 461.984
75.81 986.36 4053.96 7452.05 -32.65 57.27 135.16 -0.16 0.30 -1.31 1.19 -0.62 -0.39 462.412
72.95 986.69 4053.96 7452.05 87.12 59.20 175.96 0.20 -0.26 -1.16 1.12 -0.55 -0.15 462.976
70.79 986.95 4053.96 7452.05 -101.61 -79.83 -144.32 0.25 0.06 -1.22 1.14 -0.61 -0.33 463.417
67.76 987.30 4053.96 7452.05 60.31 -180.36 -33.02 -0.15 -0.08 -0.93 1.23 -0.57 -0.18 463.982
66.07 987.50 4053.96 7452.04 -132.15 -251.05 -120.51 0.24 0.13 -1.17 1.51 -0.45 -0.58 464.42
63.92 987.75 4053.96 7452.04 -65.89 -286.72 12.77 0.17 -0.15 -0.95 1.17 -0.60 -0.28 464.987
62.28 987.94 4053.97 7452.03 50.55 -286.72 82.24 -0.05 -0.23 -1.07 1.25 -0.60 -0.52 465.421
59.39 988.28 4053.97 7452.03 105.21 -286.72 36.99 -0.23 -0.19 -0.9 1.04 -0.54 -0.18 465.984
57.40 988.52 4053.97 7452.03 52.14 -286.72 25.57 -0.12 -0.19 -1.02 1.02 -0.59 -0.38 466.422
54.27 988.88 4053.97 7452.03 4.03 -286.72 -66.95 -0.05 0.04 -1.01 1.41 -0.54 -0.55 466.984
52.87 989.05 4053.97 7452.03 -52.08 -286.72 -102.00 0.04 0.13 -1.04 1.04 -0.59 -0.40 467.426
50.00 989.38 4053.97 7452.03 -38.40 -286.72 -18.88 0.04 -0.12 -1.06 1.35 -0.57 -0.54 468.002
47.84 989.64 4053.97 7452.03 82.31 -275.86 -5.35 -0.09 -0.10 -0.97 0.88 -0.50 -0.37 468.426
45.88 989.87 4053.97 7452.03 60.52 -282.47 -86.84 -0.03 0.06 -1.05 1.34 -0.60 -0.39 468.985
43.61 990.14 4053.97 7452.03 8.12 -254.77 -11.58 0.04 -0.05 -0.88 1.09 -0.55 -0.59 469.428
40.91 990.45 4053.97 7452.03 89.24 -208.37 -46.88 -0.08 -0.06 -1.13 1.02 -0.56 -0.25 469.991
39.73 990.59 4053.97 7452.02 -17.69 -205.49 -68.52 0.11 0.05 -1.01 1.43 -0.57 -0.45 470.43
37.57 990.84 4053.97 7452.02 8.61 -186.66 -23.24 -0.02 0.00 -1.02 1.20 -0.56 -0.60 471.022
34.75 991.18 4053.97 7452.02 -58.52 -187.76 -44.14 0.10 0.04 -0.93 1.14 -0.61 -0.43 471.433
32.25 991.47 4053.97 7452.02 -35.45 -193.65 56.56 0.04 -0.13 -1.04 1.34 -0.56 -0.20 471.994
30.81 991.64 4053.98 7452.02 -22.96 -170.16 -1.69 0.07 -0.00 -0.98 1.44 -0.56 -0.39 472.434
28.14 991.95 4053.98 7452.02 4.95 -146.32 101.51 0.05 -0.15 -1.03 1.13 -0.61 -0.41 472.999
25.70 992.24 4053.98 7452.02 49.84 -153.71 2.00 -0.00 -0.00 -0.95 0.94 -0.54 -0.30 473.436
23.23 992.53 4053.98 7452.02 63.17 -130.37 -10.29 -0.02 -0.08 -1.06 1.14 -0.57 -0.20 474.002
21.23 992.77 4053.98 7452.02 -17.37 -119.93 -83.39 0.06 0.04 -1.0 1.43 -0.56 -0.41 474.438
18.72 993.06 4053.98 7452.02 -42.83 -121.77 -4.59 0.03 -0.05 -1.07 1.40 -0.56 -0.54 475.001
16.59 993.31 4053.98 7452.02 -56.30 -119.86 36.78 0.06 -0.08 -0.94 1.20 -0.62 -0.46 475.441
14.00 993.62 4053.98 7452.02 52.27 -130.18 26.86 -0.07 -0.04 -0.99 0.94 -0.51 -0.35 476.037
11.37 993.93 4053.98 7452.02 21.78 -155.38 -0.37 -0.03 -0.03 -1.01 1.03 -0.57 -0.26 476.442
9.31 994.17 4053.98 7452.02 21.37 -173.43 -57.79 -0.06 0.06 -1.06 1.32 -0.62 -0.40 477.036
6.94 994.45 4053.98 7452.02 -44.36 -193.98 -36.41 0.02 0.00 -0.96 1.31 -0.53 -0.63 477.444
4.53 994.74 4053.98 7452.02 -44.93 -209.02 -21.68 0.02 -0.01 -1.03 1.04 -0.60 -0.40 478.015
2.28 995.00 4053.98 7452.02 -68.29 -220.72 -6.21 0.06 -0.02 -1.02 1.34 -0.56 -0.19 478.445
-4.75 995.83 4053.98 7452.02 -70.59 -238.38 27.93 0.05 -0.07 -1.02 1.37 -0.56 -0.50 479.023
-0.74 995.36 4053.98 7452.02 12.93 -188.94 4.97 -0.41 1.54 -0.23 0.96 -0.03 -0.86 479.447
-0.25 995.30 4053.98 7452.02 0.11 -1.85 0.58 -0.14 1.00 -0.04 0.94 -0.03 -0.80 480.044
-0.02 995.27 4053.98 7452.02 2.07 0.45 0.36 -0.13 1.00 -0.04 0.94 -0.03 -0.80 480.444
-0.68 995.35 4053.98 7452.02 2.33 0.17 0.25 -0.13 1.00 -0.04 0.94 -0.03 -0.80 481.046
-0.70 995.35 4053.98 7452.02 2.25 0.36 0.40 -0.13 1.00 -0.04 0.95 -0.03 -0.80 481.447
-0.16 995.29 4053.98 7452.02 2.63 0.27 0.29 -0.13 1.01 -0.04 0.94 -0.03 -0.80 482.043
-0.52 995.33 4053.98 7452.02 2.26 0.22 0.55 -0.13 1.00 -0.04 0.95 -0.03 -0.80 482.449
-0.64 995.34 4053.98 7452.02 0.23 0.38 0.41 -0.13 1.00 -0.04 0.94 -0.03 -0.80 483.046
-0.35 995.31 4053.98 7452.02 2.41 0.39 0.54 -0.13 1.00 -0.04 0.95 -0.02 -0.80 483.451
-0.20 995.29 4053.98 7452.02 2.47 0.42 0.58 -0.13 1.00 -0.04 0.94 -0.03 -0.80 484.005
-0.23 995.30 4053.99 7452.01 2.42 0.34 0.56 -0.13 1.00 -0.04 0.95 -0.03 -0.80 484.453
-0.34 995.31 4053.99 7452.01 2.57 0.11 0.53 -0.13 1.00 -0.04 0.94 -0.03 -0.80 485.037
-1.03 995.39 4053.99 7452.01 2.41 0.56 0.46 -0.13 1.00 -0.04 0.94 -0.03 -0.80 485.455
-0.87 995.37 4053.99 7452.01 2.44 0.24 0.55 -0.13 1.00 -0.04 0.95 -0.02 -0.80 486.018
-0.87 995.37 4053.99 7452.01 2.68 0.17 0.47 -0.13 1.01 -0.04 0.95 -0.03 -0.80 486.457
-0.71 995.35 4053.99 7452.01 2.35 0.30 0.49 -0.13 1.00 -0.04 0.94 -0.03 -0.80 487.001
-0.76 995.36 4053.99 7452.01 2.35 0.30 0.70 -0.12 1.00 -0.04 0.94 -0.03 -0.80 487.459
-0.86 995.37 4053.99 7452.01 2.35 0.31 0.70 -0.13 1.00 -0.04 0.95 -0.03 -0.79 488.003
-0.43 995.32 4053.99 7452.01 2.39 0.14 0.34 -0.13 1.00 -0.04 0.95 -0.03 -0.80 488.461
-0.39 995.31 4053.99 7452.01 2.47 0.24 0.41 -0.13 1.00 -0.04 0.94 -0.03 -0.80 489.02
-0.75 995.36 4053.99 7452.01 2.51 0.16 0.30 -0.12 1.00 -0.04 0.94 -0.03 -0.79 489.463
-0.72 995.35 4053.99 7452.01 2.53 0.24 0.48 -0.11 1.00 -0.04 0.94 -0.03 -0.81 490.019
-0.40 995.32 4053.99 7452.01 2.73 0.20 0.52 -0.12 1.01 -0.04 0.95 -0.03 -0.80 490.477
-0.64 995.34 4053.99 7452.01 2.52 0.25 0.49 -0.13 1.00 -0.04 0.94 -0.03 -0.80 491.018
-0.78 995.36 4053.99 7452.01 2.45 0.25 0.52 -0.13 1.01 -0.04 0.94 -0.03 -0.80 491.48
-0.85 995.37 4053.99 7452.01 2.46 0.53 0.32 -0.13 1.00 -0.04 0.95 -0.03 -0.81 492.049
-0.41 995.32 4053.99 7452.01 2.28 0.21 0.54 -0.13 1.01 -0.04 0.94 -0.03 -0.80 492.481
-0.47 995.32 4053.99 7452.01 2.40 0.34 0.41 -0.13 1.00 -0.04 0.95 -0.04 -0.81 493.027
-0.28 995.30 4053.99 7452.01 2.41 0.45 0.54 -0.13 1.00 -0.04 0.94 -0.03 -0.81 493.489
-0.53 995.33 4053.99 7452.01 2.46 0.21 0.43 -0.12 1.00 -0.04 0.95 -0.03 -0.80 494.03
-0.48 995.33 4053.99 7452.01 2.28 0.18 0.48 -0.12 1.00 -0.04 0.94 -0.03 -0.81 494.49
-0.69 995.35 4053.99 7452.01 2.39 0.26 0.49 -0.11 1.00 -0.04 0.95 -0.03 -0.81 495.034
-0.11 995.28 4053.99 7452.01 2.43 0.21 0.49 -0.13 1.01 -0.04 0.94 -0.03 -0.80 495.493
-0.41 995.32 4053.99 7452.01 2.41 0.49 0.38 -0.12 1.00 -0.04 0.94 -0.03 -0.81 496.03
-0.25 995.30 4053.99 7452.01 2.17 0.57 0.41 -0.12 1.01 -0.04 0.94 -0.03 -0.81 496.494
-0.76 995.36 4053.99 7452.01 2.32 0.45 0.44 -0.11 1.00 -0.04 0.94 -0.03 -0.80 497.056
-0.68 995.35 4053.99 7452.01 2.57 0.19 0.57 -0.12 1.01 -0.04 0.95 -0.03 -0.80 497.497
-0.54 995.33 4053.99 7452.01 2.57 0.55 0.53 -0.12 1.01 -0.04 0.95 -0.03 -0.80 498.056
-0.20 995.29 4053.99 7452.01 2.71 0.19 0.52 -0.12 1.00 -0.04 0.95 -0.03 -0.80 498.498
-0.17 995.29 4053.99 7452.01 2.32 0.39 0.31 -0.14 1.00 -0.04 0.94 -0.03 -0.81 499.037
-0.75 995.36 4053.99 7452.01 2.50 0.17 0.47 -0.12 1.00 -0.04 0.95 -0.03 -0.80 499.501
-0.56 995.34 4053.99 7452.01 2.41 0.24 0.39 -0.12 1.00 -0.04 0.95 -0.03 -0.80 500.055
-0.78 995.36 4053.99 7452.01 2.40 0.06 0.25 -0.12 1.00 -0.04 0.94 -0.03 -0.80 500.502
-0.13 995.28 4053.99 7452.01 2.65 0.22 0.31 -0.12 1.01 -0.04 0.95 -0.03 -0.80 501.059
-0.66 995.35 4053.99 7452.01 2.26 0.24 0.43 -0.12 1.00 -0.04 0.95 -0.03 -0.81 501.505
-0.52 995.33 4053.99 7452.01 2.35 0.25 0.45 -0.12 1.00 -0.04 0.95 -0.03 -0.80 502.057
-0.77 995.36 4053.99 7452.01 2.44 0.55 0.51 -0.12 1.00 -0.04 0.95 -0.04 -0.81 502.506
-0.79 995.36 4053.99 7452.01 4.45 0.63 0.20 -0.12 1.00 -0.04 0.95 -0.03 -0.80 503.068
-0.83 995.37 4053.99 7452.01 2.51 0.21 0.55 -0.12 1.00 -0.05 0.94 -0.03 -0.80 503.508
-0.36 995.31 4053.99 7452.01 2.68 0.35 0.26 -0.12 1.00 -0.04 0.94 -0.03 -0.80 504.064
-0.58 995.34 4053.99 7452.01 2.16 0.32 0.40 -0.12 1.01 -0.04 0.94 -0.03 -0.80 504.51
-0.54 995.33 4053.99 7452.01 2.78 0.45 0.48 -0.12 1.00 -0.04 0.95 -0.03 -0.81 505.043
-0.83 995.37 4053.99 7452.01 2.57 0.31 0.46 -0.12 1.01 -0.04 0.95 -0.03 -0.81 505.512
-0.24 995.30 4053.99 7452.01 2.40 0.38 0.47 -0.12 1.01 -0.04 0.95 -0.03 -0.81 506.07
-0.76 995.36 4053.99 7452.01 2.38 0.28 0.52 -0.12 1.00 -0.04 0.95 -0.03 -0.81 506.514
-0.49 995.33 4053.99 7452.01 2.25 0.28 0.45 -0.12 1.01 -0.04 0.95 -0.03 -0.80 507.046
-0.57 995.34 4053.99 7452.01 2.37 0.10 0.40 -0.12 1.00 -0.04 0.95 -0.03 -0.80 507.517
-0.50 995.33 4053.99 7452.01 2.49 0.11 0.60 -0.12 1.00 -0.04 0.95 -0.03 -0.80 508.055
-0.79 995.36 4053.99 7452.01 2.42 0.12 0.61 -0.12 1.01 -0.04 0.95 -0.03 -0.80 508.519
-0.85 995.37 4053.99 7452.01 2.38 0.23 0.40 -0.12 1.00 -0.04 0.94 -0.03 -0.80 509.047
-0.86 995.37 4053.99 7452.01 2.54 0.24 0.44 -0.12 1.01 -0.04 0.94 -0.03 -0.80 509.522
-0.35 995.31 4053.99 7452.01 2.35 0.14 0.59 -0.12 1.00 -0.04 0.94 -0.03 -0.80 510.066
-0.47 995.32 4053.99 7452.01 2.63 0.42 0.41 -0.12 1.00 -0.04 0.95 -0.03 -0.81 510.524
-0.45 995.32 4053.99 7452.01 2.35 0.25 0.47 -0.12 1.01 -0.04 0.95 -0.03 -0.80 511.062
-0.77 995.36 4053.99 7452.01 2.34 0.36 0.52 -0.12 1.01 -0.04 0.95 -0.03 -0.80 511.527
-0.76 995.36 4053.99 7452.01 2.59 0.34 0.25 -0.12 1.00 -0.04 0.94 -0.03 -0.80 512.065
-0.81 995.37 4053.99 7452.01 2.49 0.33 0.35 -0.12 1.01 -0.04 0.95 -0.03 -0.81 512.529
-0.85 995.37 4053.99 7452.01 2.59 0.24 0.48 -0.12 1.01 -0.04 0.95 -0.03 -0.80 513.08
-0.01 995.27 4053.99 7452.01 2.29 0.30 0.25 -0.12 1.00 -0.04 0.95 -0.03 -0.81 513.531
-0.48 995.33 4053.99 7452.01 2.29 0.30 0.44 -0.12 1.00 -0.04 0.95 -0.03 -0.81 514.066
-0.42 995.32 4053.99 7452.01 2.28 0.38 0.48 -0.12 1.01 -0.04 0.95 -0.03 -0.81 514.533
-0.89 995.37 4053.99 7452.01 0.21 0.31 0.40 -0.12 1.00 -0.04 0.95 -0.03 -0.80 515.058
-0.82 995.37 4053.99 7452.01 2.38 0.34 0.62 -0.12 1.01 -0.04 0.95 -0.04 -0.81 515.535
-0.34 995.31 4053.99 7452.01 2.49 0.11 0.58 -0.12 1.00 -0.04 0.95 -0.03 -0.80 516.066
-0.47 995.32 4053.99 7452.01 2.26 0.44 0.42 -0.12 1.01 -0.04 0.95 -0.04 -0.81 516.537
-0.41 995.32 4053.99 7452.01 2.42 0.28 0.31 -0.12 1.00 -0.04 0.95 -0.03 -0.81 517.057
-0.67 995.35 4053.99 7452.01 2.17 0.14 0.46 -0.12 1.01 -0.04 0.95 -0.03 -0.80 517.539
-0.23 995.30 4053.99 7452.01 2.43 0.45 0.40 -0.12 1.00 -0.04 0.95 -0.03 -0.81 518.093
-0.35 995.31 4053.99 7452.01 2.57 0.25 0.40 -0.12 1.01 -0.04 0.95 -0.04 -0.80 518.541
-0.78 995.36 4053.99 7452.01 2.35 0.20 0.30 -0.12 1.00 -0.04 0.95 -0.04 -0.81 519.095
-0.57 995.34 4053.99 7452.01 2.30 0.26 0.30 -0.12 1.00 -0.04 0.95 -0.03 -0.81 519.543
-0.55 995.33 4053.99 7452.01 2.31 0.56 0.49 -0.12 1.00 -0.04 0.95 -0.03 -0.80 520.075
-0.44 995.32 4053.99 7452.01 2.49 0.25 0.52 -0.12 1.00 -0.04 0.95 -0.03 -0.81 520.545
-0.73 995.35 4053.99 7452.01 2.46 0.38 0.52 -0.12 1.01 -0.04 0.95 -0.03 -0.80 521.093
-0.46 995.32 4053.99 7452.01 2.52 0.26 0.34 -0.12 1.00 -0.04 0.95 -0.03 -0.80 521.551
-0.12 995.28 4053.99 7452.01 2.31 0.15 0.40 -0.12 1.01 -0.04 0.95 -0.03 -0.81 522.099
-0.40 995.32 4053.99 7452.01 2.38 0.25 0.52 -0.12 1.00 -0.04 0.95 -0.03 -0.80 522.557
-0.86 995.37 4053.99 7452.01 2.49 0.31 0.47 -0.12 1.01 -0.04 0.95 -0.03 -0.81 523.102
-0.68 995.35 4053.99 7452.01 2.66 0.39 0.34 -0.11 1.01 -0.04 0.95 -0.03 -0.81 523.559
-0.56 995.33 4053.99 7452.01 2.44 0.42 0.59 -0.12 1.00 -0.04 0.95 -0.03 -0.80 524.113
-0.90 995.38 4053.99 7452.01 2.33 0.44 0.51 -0.12 1.00 -0.04 0.95 -0.02 -0.81 524.573
-0.30 995.30 4053.99 7452.01 2.62 0.17 0.17 -0.12 1.00 -0.04 0.95 -0.03 -0.80 525.119
-0.67 995.35 4053.99 7452.01 2.66 0.28 0.48 -0.12 1.00 -0.04 0.96 -0.03 -0.80 525.577
-0.59 995.34 4053.99 7452.01 2.42 0.36 0.41 -0.12 1.00 -0.04 0.95 -0.03 -0.80 526.085
-0.34 995.31 4053.99 7452.01 2.55 0.30 0.52 -0.12 1.01 -0.04 0.95 -0.03 -0.81 526.579
-0.47 995.32 4053.99 7452.01 2.09 0.31 0.53 -0.12 1.00 -0.04 0.95 -0.03 -0.81 527.114
-0.25 995.30 4053.99 7452.01 2.35 0.25 0.33 -0.12 1.00 -0.04 0.95 -0.03 -0.81 527.581
-1.54 995.45 4053.99 7452.01 2.52 0.27 0.53 -0.12 1.00 -0.04 0.95 -0.03 -0.80 528.082
-0.32 995.31 4053.99 7452.01 2.26 0.47 0.41 -0.12 1.01 -0.04 0.95 -0.03 -0.81 528.583
-0.77 995.36 4053.99 7452.01 2.64 0.32 0.34 -0.12 1.00 -0.04 0.95 -0.03 -0.81 529.084
-0.35 995.31 4053.99 7452.01 2.35 0.37 0.48 -0.11 1.00 -0.04 0.95 -0.03 -0.80 529.586
-0.57 995.34 4053.99 7452.01 2.34 0.18 0.45 -0.12 1.01 -0.04 0.95 -0.03 -0.79 530.087
-0.46 995.32 4053.99 7452.01 2.40 0.29 0.37 -0.12 1.01 -0.04 0.95 -0.03 -0.81 530.588
-0.32 995.31 4053.99 7452.01 2.38 0.36 0.60 -0.11 1.00 -0.04 0.95 -0.03 -0.80 531.089
-0.54 995.33 4053.99 7452.01 2.68 0.55 0.55 -0.12 1.01 -0.04 0.96 -0.03 -0.81 531.591
-1.01 995.39 4053.99 7452.01 2.23 0.13 0.68 -0.11 1.01 -0.04 0.95 -0.03 -0.81 532.091
-0.66 995.35 4053.99 7452.01 2.38 0.37 0.30 -0.11 1.01 -0.04 0.95 -0.03 -0.80 532.592
-0.23 995.30 4053.99 7452.01 2.31 0.22 0.55 -0.12 1.00 -0.04 0.95 -0.03 -0.80 533.093
-0.72 995.35 4053.99 7452.01 0.06 0.36 0.55 -0.12 1.00 -0.04 0.95 -0.04 -0.80 533.595
-0.77 995.36 4053.99 7452.01 2.35 0.24 0.56 -0.11 1.00 -0.04 0.96 -0.03 -0.80 534.127
-0.48 995.33 4053.99 7452.01 2.45 0.17 0.65 -0.12 1.01 -0.04 0.95 -0.03 -0.80 534.596
-0.42 995.32 4053.99 7452.01 2.18 0.31 0.37 -0.11 1.01 -0.04 0.95 -0.03 -0.80 535.097
-0.43 995.32 4053.99 7452.01 2.31 0.29 0.48 -0.12 1.01 -0.04 0.95 -0.03 -0.80 535.599
-0.29 995.30 4053.99 7452.01 2.28 0.14 0.35 -0.11 1.00 -0.04 0.95 -0.03 -0.81 536.099
-0.55 995.33 4053.99 7452.01 2.39 0.12 0.38 -0.12 1.01 -0.04 0.95 -0.03 -0.81 536.6
-1.02 995.39 4053.99 7452.01 2.37 0.24 0.40 -0.11 1.00 -0.04 0.95 -0.03 -0.80 537.101
-0.46 995.32 4053.99 7452.01 2.52 0.42 0.41 -0.12 1.00 -0.04 0.95 -0.03 -0.80 537.603
-0.68 995.35 4053.99 7452.01 2.09 0.25 0.33 -0.11 1.00 -0.05 0.95 -0.04 -0.80 538.103
-0.68 995.35 4053.99 7452.01 2.39 0.23 0.37 -0.11 1.01 -0.04 0.95 -0.03 -0.80 538.604
-0.26 995.30 4053.99 7452.01 2.42 0.50 0.55 -0.10 1.01 -0.04 0.95 -0.03 -0.81 539.124
-0.56 995.34 4053.99 7452.01 2.62 0.16 0.53 -0.11 1.00 -0.04 0.95 -0.03 -0.81 539.607
-0.40 995.32 4053.99 7452.01 2.53 0.41 0.41 -0.11 1.00 -0.04 0.95 -0.03 -0.80 540.131
-0.27 995.30 4053.99 7452.01 2.53 0.16 0.35 -0.11 1.01 -0.04 0.95 -0.03 -0.81 540.608
-0.35 995.31 4053.99 7452.01 2.44 0.23 0.40 -0.11 1.01 -0.04 0.95 -0.03 -0.81 541.109
-0.78 995.36 4053.99 7452.01 2.25 0.27 0.39 -0.11 1.00 -0.04 0.95 -0.03 -0.81 541.611
-0.72 995.35 4053.99 7452.01 2.53 0.45 0.36 -0.12 1.00 -0.05 0.95 -0.03 -0.80 542.111
-0.45 995.32 4053.99 7452.01 2.35 0.11 0.45 -0.11 1.00 -0.04 0.95 -0.03 -0.80 542.612
-0.36 995.31 4053.99 7452.01 2.00 0.36 0.56 -0.12 1.01 -0.05 0.95 -0.03 -0.80 543.113
-0.77 995.36 4053.99 7452.01 2.25 0.17 0.46 -0.11 1.00 -0.04 0.95 -0.03 -0.81 543.614
-0.03 995.27 4053.99 7452.01 2.63 0.24 0.44 -0.12 1.00 -0.04 0.96 -0.03 -0.81 544.115
-0.66 995.35 4053.99 7452.01 2.24 0.17 0.64 -0.12 1.00 -0.04 0.95 -0.03 -0.81 544.616
-0.44 995.32 4053.99 7452.01 0.00 0.13 0.52 -0.12 1.01 -0.04 0.95 -0.03 -0.79 545.145
-0.49 995.33 4053.99 7452.01 2.69 0.46 0.70 -0.11 1.00 -0.04 0.96 -0.04 -0.80 545.618
-0.46 995.32 4053.99 7452.01 2.31 0.38 0.52 -0.11 1.01 -0.04 0.95 -0.03 -0.81 546.135
-0.51 995.33 4053.99 7452.01 2.42 0.16 0.35 -0.11 1.01 -0.04 0.96 -0.03 -0.81 546.62
-0.17 995.29 4053.99 7452.01 2.49 0.41 0.74 -0.12 1.01 -0.05 0.95 -0.02 -0.80 547.13
-0.87 995.37 4053.99 7452.01 2.55 0.15 0.17 -0.11 1.01 -0.04 0.95 -0.03 -0.80 547.623
-0.29 995.30 4053.99 7452.01 2.59 0.35 0.56 -0.11 1.01 -0.04 0.95 -0.03 -0.79 548.13
-0.32 995.31 4053.99 7452.01 2.52 0.28 0.31 -0.11 1.00 -0.04 0.95 -0.03 -0.80 548.625
-0.57 995.34 4053.99 7452.01 2.50 0.45 0.42 -0.11 1.00 -0.04 0.95 -0.03 -0.80 549.15
-0.06 995.28 4053.99 7452.01 2.38 0.33 0.52 -0.11 1.01 -0.04 0.95 -0.03 -0.80 549.627
-0.20 995.29 4053.99 7452.01 2.33 0.28 0.54 -0.11 1.01 -0.04 0.95 -0.03 -0.80 550.15
-0.64 995.34 4053.99 7452.01 2.38 0.45 0.30 -0.12 1.01 -0.04 0.95 -0.03 -0.80 550.629
-0.72 995.35 4053.99 7452.01 2.43 0.25 0.33 -0.11 1.01 -0.04 0.95 -0.03 -0.80 551.131
-0.52 995.33 4053.99 7452.01 1.96 0.32 0.44 -0.11 1.01 -0.04 0.95 -0.03 -0.80 551.631
-0.64 995.34 4053.99 7452.01 2.36 0.54 0.57 -0.11 1.00 -0.04 0.95 -0.03 -0.80 552.132
-0.97 995.38 4053.99 7452.01 2.52 0.32 0.42 -0.11 1.00 -0.04 0.95 -0.03 -0.80 552.633
-1.06 995.39 4053.99 7452.01 2.35 0.38 0.67 -0.11 1.01 -0.04 0.95 -0.03 -0.81 553.135
-0.38 995.31 4053.99 7452.01 2.53 0.35 0.36 -0.12 1.00 -0.04 0.95 -0.03 -0.81 553.635
-0.03 995.27 4053.99 7452.01 2.29 0.32 0.54 -0.11 1.01 -0.04 0.96 -0.03 -0.81 554.136
-0.60 995.34 4053.99 7452.01 2.07 0.34 0.45 -0.11 1.00 -0.04 0.95 -0.03 -0.81 554.637
-0.53 995.33 4053.99 7452.01 2.23 0.28 0.31 -0.11 1.01 -0.04 0.95 -0.03 -0.80 555.139
-0.68 995.35 4053.99 7452.01 2.42 0.27 0.56 -0.11 1.01 -0.04 0.96 -0.03 -0.80 555.639
-0.77 995.36 4053.99 7452.01 2.47 0.29 0.38 -0.11 1.01 -0.04 0.95 -0.03 -0.80 556.14
-0.49 995.33 4053.99 7452.01 2.40 0.35 0.39 -0.11 1.00 -0.04 0.95 -0.03 -0.80 556.641
0.23 995.24 4053.99 7452.01 2.53 0.17 0.36 -0.11 1.01 -0.04 0.96 -0.03 -0.80 557.142
-0.65 995.35 4053.99 7452.01 2.44 0.49 0.29 -0.11 1.01 -0.04 0.96 -0.03 -0.80 557.643
-0.40 995.32 4053.99 7452.01 2.22 0.32 0.44 -0.11 1.01 -0.04 0.96 -0.03 -0.80 558.144
-0.32 995.31 4053.99 7452.01 2.33 0.32 0.26 -0.11 1.01 -0.04 0.96 -0.03 -0.81 558.645
-0.86 995.37 4053.99 7452.01 2.28 0.29 0.51 -0.11 1.00 -0.04 0.96 -0.03 -0.80 559.147
-0.18 995.29 4053.99 7452.01 2.39 0.25 0.52 -0.11 1.00 -0.04 0.96 -0.03 -0.80 559.647
-0.28 995.30 4053.99 7452.01 2.51 0.17 0.65 -0.11 1.00 -0.04 0.96 -0.03 -0.79 560.158
-0.72 995.35 4053.99 7452.01 2.53 0.21 0.53 -0.11 1.00 -0.04 0.96 -0.03 -0.79 560.649
-0.44 995.32 4053.99 7452.01 2.57 0.24 0.53 -0.11 1.01 -0.04 0.96 -0.02 -0.80 561.15
-0.41 995.32 4053.99 7452.01 2.32 0.10 0.40 -0.11 1.00 -0.04 0.96 -0.03 -0.80 561.651
-0.80 995.36 4053.99 7452.01 2.48 0.25 0.43 -0.11 1.00 -0.05 0.95 -0.02 -0.80 562.152
-1.03 995.39 4053.99 7452.01 2.39 0.43 0.25 -0.11 1.00 -0.04 0.96 -0.03 -0.80 562.653
-0.61 995.34 4053.99 7452.01 2.63 0.23 0.54 -0.12 1.00 -0.04 0.95 -0.03 -0.80 563.154
-0.79 995.36 4053.99 7452.01 2.26 0.45 0.57 -0.11 1.01 -0.04 0.95 -0.03 -0.80 563.655
-0.77 995.36 4053.99 7452.01 2.63 0.26 0.51 -0.12 1.01 -0.04 0.96 -0.03 -0.80 564.156
-0.32 995.31 4053.99 7452.01 2.61 0.31 0.35 -0.11 1.00 -0.04 0.96 -0.03 -0.80 564.658
-0.66 995.35 4053.99 7452.01 2.45 0.35 0.51 -0.11 1.01 -0.04 0.96 -0.03 -0.80 565.159
-0.41 995.32 4053.99 7452.01 2.28 0.16 0.60 -0.11 1.00 -0.04 0.95 -0.03 -0.80 565.66
-0.12 995.28 4053.99 7452.01 2.34 0.41 0.62 -0.11 1.00 -0.04 0.96 -0.03 -0.81 566.161
-0.62 995.34 4053.99 7452.01 2.34 0.30 0.40 -0.11 1.01 -0.04 0.96 -0.03 -0.80 566.663
-0.76 995.36 4053.99 7452.01 2.35 0.45 0.27 -0.11 1.01 -0.05 0.96 -0.03 -0.80 567.163
-0.71 995.35 4053.99 7452.01 2.31 0.39 0.53 -0.11 1.01 -0.04 0.95 -0.03 -0.80 567.664
-0.68 995.35 4053.99 7452.01 2.34 0.45 0.33 -0.11 1.01 -0.05 0.96 -0.03 -0.81 568.165
0.15 995.25 4053.99 7452.01 2.40 0.45 0.31 -0.11 1.00 -0.04 0.96 -0.04 -0.80 568.666
-0.81 995.36 4053.98 7452.01 2.22 0.40 0.56 -0.11 1.00 -0.05 0.96 -0.03 -0.79 569.167
-0.21 995.29 4053.98 7452.01 2.47 0.26 0.32 -0.11 1.00 -0.04 0.96 -0.03 -0.79 569.668
-0.20 995.29 4053.98 7452.01 2.00 0.37 0.41 -0.11 1.00 -0.05 0.96 -0.03 -0.80 570.169
-0.31 995.31 4053.98 7452.01 2.50 0.47 0.46 -0.11 1.01 -0.04 0.96 -0.03 -0.80 570.671
-0.59 995.34 4053.98 7452.01 2.25 0.48 0.39 -0.11 1.00 -0.04 0.96 -0.04 -0.81 571.171
-0.23 995.30 4053.98 7452.01 2.61 0.34 0.48 -0.11 1.00 -0.04 0.96 -0.03 -0.81 571.672
-0.49 995.33 4053.98 7452.01 2.35 0.43 0.51 -0.10 1.01 -0.04 0.95 -0.03 -0.80 572.173
-0.05 995.27 4053.98 7452.01 2.56 0.45 0.33 -0.11 1.01 -0.04 0.96 -0.03 -0.80 572.675
-0.27 995.30 4053.98 7452.01 2.14 0.25 0.44 -0.11 1.01 -0.04 0.95 -0.03 -0.80 573.175
-0.14 995.29 4053.98 7452.01 2.26 0.24 0.32 -0.11 1.01 -0.04 0.96 -0.03 -0.80 573.676
-0.42 995.32 4053.98 7452.01 2.26 0.31 0.45 -0.11 1.00 -0.04 0.96 -0.03 -0.81 574.177
-0.39 995.32 4053.98 7452.01 2.28 0.34 0.38 -0.11 1.00 -0.04 0.96 -0.02 -0.80 574.679
-0.32 995.31 4053.98 7452.01 2.16 0.45 0.31 -0.11 1.00 -0.04 0.95 -0.03 -0.80 575.179
-0.06 995.28 4053.98 7452.01 2.45 0.18 0.36 -0.11 1.01 -0.04 0.95 -0.03 -0.80 575.68
-0.49 995.33 4053.98 7452.01 2.25 0.23 0.41 -0.11 1.01 -0.04 0.96 -0.03 -0.80 576.181
-0.21 995.29 4053.98 7452.01 2.30 0.52 0.47 -0.11 1.01 -0.04 0.95 -0.03 -0.80 576.683
-0.85 995.37 4053.98 7452.01 2.33 0.43 0.31 -0.11 1.01 -0.04 0.96 -0.03 -0.81 577.183
-0.33 995.31 4053.98 7452.01 2.67 0.33 0.31 -0.11 1.01 -0.04 0.96 -0.03 -0.80 577.684
-0.49 995.33 4053.98 7452.01 2.68 0.34 0.38 -0.11 1.00 -0.04 0.96 -0.03 -0.81 578.185
0.15 995.25 4053.98 7452.01 2.29 0.24 0.55 -0.11 1.00 -0.04 0.96 -0.03 -0.82 578.685
0.12 995.26 4053.98 7452.01 2.43 0.33 0.42 -0.11 1.00 -0.04 0.96 -0.03 -0.81 579.186
-0.16 995.29 4053.98 7452.01 2.20 0.21 0.44 -0.11 1.01 -0.04 0.96 -0.02 -0.81 579.688
-0.29 995.30 4053.98 7452.01 2.48 0.19 0.32 -0.11 1.01 -0.04 0.96 -0.03 -0.81 580.189
0.06 995.26 4053.98 7452.01 2.45 0.33 0.44 -0.11 1.00 -0.04 0.96 -0.03 -0.81 580.689
-0.12 995.28 4053.98 7452.01 2.46 0.35 0.52 -0.12 1.01 -0.04 0.96 -0.03 -0.81 581.191
-0.23 995.30 4053.98 7452.01 2.40 0.45 0.37 -0.11 1.01 -0.04 0.96 -0.03 -0.81 581.692
0.12 995.26 4053.98 7452.01 2.40 0.36 0.40 -0.11 1.00 -0.04 0.97 -0.03 -0.81 582.193
0.09 995.26 4053.98 7452.01 2.62 0.44 0.51 -0.11 1.01 -0.04 0.96 -0.03 -0.80 582.694
0.32 995.23 4053.98 7452.01 2.12 0.18 0.51 -0.11 1.01 -0.04 0.96 -0.03 -0.81 583.195
-0.15 995.29 4053.98 7452.01 2.36 0.47 0.43 -0.11 1.01 -0.05 0.96 -0.03 -0.80 583.697
0.05 995.26 4053.98 7452.01 2.20 0.73 0.38 -0.11 1.01 -0.05 0.96 -0.03 -0.81 584.198
-0.07 995.28 4053.98 7452.01 2.35 0.77 0.56 -0.11 0.99 -0.04 0.96 -0.03 -0.81 584.699
0.07 995.26 4053.98 7452.01 2.50 1.72 0.22 -0.11 1.01 -0.05 0.96 -0.03 -0.81 585.199
-0.17 995.29 4053.98 7452.01 2.07 0.38 0.55 -0.11 1.00 -0.04 0.96 -0.03 -0.81 585.701
-0.02 995.27 4053.98 7452.01 2.49 0.11 0.12 -0.11 1.00 -0.04 0.96 -0.03 -0.80 586.203
-0.11 995.28 4053.98 7452.01 2.52 0.53 0.39 -0.11 1.01 -0.04 0.96 -0.03 -0.81 586.703
-0.04 995.27 4053.98 7452.01 2.35 0.43 0.52 -0.11 1.01 -0.04 0.96 -0.03 -0.81 587.204
0.26 995.24 4053.98 7452.01 1.94 0.41 0.46 -0.11 1.01 -0.05 0.96 -0.03 -0.81 587.704
-0.10 995.28 4053.98 7452.01 2.51 0.26 0.19 -0.11 1.01 -0.04 0.96 -0.03 -0.80 588.207
-0.04 995.27 4053.98 7452.01 2.31 0.37 0.58 -0.10 1.01 -0.04 0.96 -0.03 -0.81 588.707
-0.60 995.34 4053.98 7452.01 2.32 0.10 0.30 -0.11 1.00 -0.04 0.96 -0.03 -0.81 589.208
0.47 995.21 4053.98 7452.01 2.37 0.31 0.38 -0.10 1.01 -0.04 0.96 -0.04 -0.80 589.708
0.10 995.26 4053.98 7452.01 2.71 0.51 0.34 -0.11 1.01 -0.04 0.95 -0.03 -0.80 590.21
0.55 995.20 4053.98 7452.01 2.28 0.70 0.45 -0.11 1.01 -0.05 0.96 -0.03 -0.81 590.71
0.19 995.25 4053.98 7452.01 3.68 29.09 -1.99 -0.05 0.95 -0.01 0.98 -0.03 -0.82 591.213
0.30 995.23 4053.98 7452.01 -31.54 -35.02 48.46 -0.64 1.01 -0.28 0.82 -0.11 -0.71 591.717
0.44 995.22 4053.98 7452.01 -27.44 -97.41 110.60 -0.78 0.34 0.16 0.76 0.16 -0.54 592.22
0.59 995.20 4053.98 7452.01 -21.79 -101.42 -29.44 -0.28 -0.34 0.64 0.93 0.33 -0.34 592.722
0.68 995.19 4053.98 7452.01 -2.28 -10.43 -25.63 -0.64 -0.57 0.57 0.85 0.29 -0.32 593.221
0.57 995.20 4053.98 7452.01 10.80 40.43 17.76 -0.86 -0.45 0.57 0.81 0.27 -0.38 593.72
0.59 995.20 4053.98 7452.01 29.68 42.79 -3.39 -0.65 -0.29 0.59 0.87 0.31 -0.36 594.222
1.14 995.14 4053.98 7452.01 32.32 5.05 19.05 -0.90 -0.30 0.57 0.87 0.30 -0.32 594.721
0.63 995.19 4053.98 7452.01 16.95 4.71 15.35 -0.66 -0.38 0.63 0.90 0.31 -0.29 595.222
0.65 995.19 4053.98 7452.01 -19.56 -11.67 -8.23 -0.73 -0.29 0.66 0.90 0.32 -0.31 595.726
0.90 995.16 4053.98 7452.01 -5.61 94.10 -27.61 -0.80 0.03 0.57 0.86 0.30 -0.40 596.226
0.12 995.26 4053.98 7452.01 26.52 17.11 -13.24 -0.82 0.56 0.15 0.76 0.17 -0.55 596.726
1.28 995.12 4053.98 7452.01 -6.14 2.66 4.14 -0.86 0.46 0.27 0.82 0.19 -0.55 597.224
0.48 995.21 4053.98 7452.01 -22.76 -10.45 3.79 -0.85 0.59 0.18 0.81 0.17 -0.60 597.728
0.67 995.19 4053.98 7452.01 18.37 -34.78 8.65 -0.70 0.59 0.2 0.81 0.15 -0.63 598.228
-0.08 995.28 4053.98 7452.01 25.57 15.08 4.67 -0.91 0.42 0.25 0.77 0.18 -0.55 598.729
0.23 995.24 4053.98 7452.01 -2.81 3.05 14.32 -0.82 0.54 0.27 0.80 0.20 -0.56 599.229
0.20 995.25 4053.98 7452.01 -15.04 -13.27 17.99 -0.74 0.51 0.38 0.83 0.21 -0.60 599.734
0.14 995.25 4053.98 7452.01 5.92 -1.63 -7.79 -0.86 0.54 0.36 0.85 0.23 -0.59 600.232
0.45 995.22 4053.98 7452.01 -1.83 2.18 -4.40 -0.83 0.51 0.36 0.85 0.22 -0.59 600.733
0.45 995.22 4053.98 7452.01 1.51 5.06 2.32 -0.81 0.55 0.33 0.84 0.21 -0.59 601.232
0.36 995.23 4053.98 7452.01 0.38 1.47 -3.98 -0.81 0.56 0.35 0.84 0.22 -0.59 601.735
0.99 995.15 4053.98 7452.01 3.68 5.71 -1.75 -0.81 0.54 0.33 0.84 0.22 -0.59 602.235
0.69 995.19 4053.98 7452.01 2.70 2.85 -15.85 -0.82 0.57 0.23 0.83 0.20 -0.61 602.737
0.86 995.17 4053.98 7452.01 -1.78 -14.86 -46.60 -0.81 0.45 0.25 0.79 0.18 -0.57 603.241
0.41 995.22 4053.98 7452.01 29.65 -1.16 -17.94 -0.75 0.55 0.09 0.79 0.14 -0.61 603.742
1.05 995.15 4053.98 7452.01 57.88 47.31 10.65 -0.77 0.60 0.48 0.77 0.18 -0.53 604.241
0.36 995.23 4053.98 7452.01 -1.35 -9.37 -1.86 -0.76 0.45 0.48 0.77 0.22 -0.42 604.742
1.10 995.14 4053.98 7452.01 16.06 -23.24 24.56 -0.72 0.31 0.65 0.81 0.27 -0.36 605.244
0.54 995.21 4053.98 7452.01 13.27 19.93 35.11 -0.56 0.01 0.85 0.93 0.30 -0.23 605.745
1.23 995.12 4053.98 7452.01 11.23 -43.00 -26.67 -0.50 0.13 1.03 0.99 0.31 -0.21 606.247
1.81 995.06 4053.98 7452.01 -16.32 5.28 -17.75 -0.45 0.07 0.9 0.93 0.29 -0.21 606.747
1.14 995.13 4053.98 7452.01 9.57 -5.02 2.36 -0.51 0.02 0.94 0.94 0.30 -0.21 607.245
0.91 995.16 4053.98 7452.01 22.29 -23.20 -2.07 -0.28 -0.11 0.84 1.00 0.28 -0.16 607.751
1.23 995.13 4053.98 7452.01 12.96 -0.25 -28.66 -0.39 -0.25 0.92 0.96 0.23 -0.10 608.251
1.11 995.14 4053.98 7452.01 34.82 86.45 48.13 -0.46 -0.17 0.83 0.88 0.19 -0.11 608.751
0.98 995.15 4053.98 7452.01 32.52 46.56 2.84 -0.46 -0.44 0.89 0.81 0.15 -0.15 609.251
1.21 995.13 4053.98 7452.01 2.30 45.64 9.14 -0.53 -0.27 0.72 0.78 0.13 -0.17 609.752
1.34 995.11 4053.98 7452.01 13.13 38.47 -5.29 -0.64 -0.20 0.91 0.72 0.15 -0.32 610.254
0.80 995.18 4053.98 7452.01 33.27 21.48 29.58 -0.47 -0.29 0.8 0.74 0.19 -0.38 610.755
1.24 995.12 4053.98 7452.01 -12.98 -25.94 -14.49 -0.34 -0.15 0.8 0.77 0.22 -0.32 611.259
0.93 995.16 4053.98 7452.01 3.64 39.66 0.70 -0.41 -0.23 1.03 0.77 0.23 -0.36 611.756
0.69 995.19 4053.98 7452.01 13.90 -8.59 -11.27 -0.55 -0.14 1.13 0.77 0.23 -0.38 612.259
0.81 995.17 4053.98 7452.01 3.57 0.91 13.16 -0.47 -0.14 1.13 0.77 0.23 -0.35 612.757
1.02 995.15 4053.98 7452.01 25.34 -16.25 5.30 -0.73 -0.38 1.11 0.80 0.26 -0.35 613.26
0.63 995.20 4053.98 7452.01 10.60 4.31 -5.14 -0.43 -0.26 1.02 0.81 0.27 -0.34 613.761
0.85 995.17 4053.98 7452.01 2.34 -5.03 -1.45 -0.40 -0.18 0.93 0.78 0.24 -0.37 614.261
0.93 995.16 4053.98 7452.01 3.43 35.64 9.31 -0.40 -0.05 0.83 0.76 0.22 -0.40 614.761
0.77 995.18 4053.98 7452.02 42.18 1.10 22.65 -0.42 -0.15 0.89 0.79 0.24 -0.43 615.263
1.23 995.12 4053.98 7452.02 -1.04 32.63 5.45 -0.17 -0.30 0.57 0.78 0.23 -0.32 615.764
0.84 995.17 4053.98 7452.02 -6.35 3.57 -2.06 -0.33 -0.13 0.48 0.79 0.25 -0.41 616.265
0.67 995.19 4053.98 7452.02 -24.72 -18.22 6.40 -0.31 -0.07 0.65 0.77 0.23 -0.43 616.768
1.01 995.15 4053.98 7452.02 5.72 -6.17 -0.34 -0.32 0.04 0.49 0.76 0.22 -0.47 617.267
0.97 995.16 4053.98 7452.02 -13.21 -39.72 -14.93 -0.40 -0.05 0.52 0.74 0.18 -0.41 617.774
0.84 995.17 4053.98 7452.02 -3.08 20.57 19.33 -0.37 -0.09 0.61 0.74 0.19 -0.44 618.271
0.54 995.21 4053.98 7452.02 -16.66 -6.55 10.81 -0.29 0.06 0.88 0.78 0.24 -0.42 618.772
0.51 995.21 4053.98 7452.02 -8.77 5.71 12.07 -0.27 -0.03 0.79 0.81 0.26 -0.46 619.273
0.97 995.16 4053.98 7452.02 -13.27 -29.36 -7.80 -0.34 -0.30 1.02 0.82 0.26 -0.42 619.777
0.94 995.16 4053.98 7452.02 -4.78 13.21 9.85 -0.22 0.11 1.12 0.84 0.28 -0.48 620.273
1.20 995.13 4053.98 7452.02 -16.75 -67.53 -38.21 -0.69 -0.20 1.35 0.81 0.26 -0.43 620.779
0.72 995.19 4053.98 7452.02 -2.77 44.90 35.60 -0.47 -0.09 1.27 0.78 0.23 -0.44 621.278
0.36 995.23 4053.98 7452.02 13.90 -51.96 -9.86 -0.58 -0.25 1.33 0.84 0.28 -0.45 621.779
0.41 995.22 4053.98 7452.02 -4.66 10.78 12.82 -0.27 0.12 1.24 0.85 0.28 -0.50 622.278
0.53 995.21 4053.98 7452.02 13.70 -5.80 -16.57 -0.32 -0.12 1.09 0.87 0.29 -0.50 622.781
1.11 995.14 4053.98 7452.02 13.75 33.98 -10.70 -0.38 0.15 0.93 0.86 0.26 -0.54 623.282
1.39 995.11 4053.98 7452.02 9.24 -2.16 8.81 -0.31 0.02 0.87 0.90 0.28 -0.57 623.779
0.48 995.21 4053.98 7452.02 -4.41 -8.07 -4.51 -0.28 0.05 0.95 0.92 0.28 -0.56 624.282
1.27 995.12 4053.98 7452.02 31.06 43.45 2.64 -0.28 0.11 1.0 0.94 0.29 -0.57 624.782
1.24 995.12 4053.98 7452.02 54.57 19.37 -6.24 -0.41 -0.29 0.85 0.99 0.33 -0.50 625.286
0.88 995.17 4053.98 7452.02 -21.51 6.92 20.48 -0.31 -0.33 0.75 0.98 0.35 -0.41 625.786
1.01 995.15 4053.98 7452.02 -1.52 -9.56 -27.57 -0.41 -0.27 1.02 0.98 0.35 -0.43 626.288
1.45 995.10 4053.98 7452.02 18.51 -11.05 31.10 -0.45 -0.21 1.02 0.94 0.33 -0.46 626.789
1.18 995.13 4053.98 7452.02 30.33 20.67 6.55 -0.30 -0.33 0.8 1.00 0.35 -0.39 627.289
1.02 995.15 4053.98 7452.02 21.03 4.61 18.03 -0.01 -0.61 1.04 1.08 0.37 -0.39 627.789
1.27 995.12 4053.98 7452.02 50.39 63.67 -33.52 -0.40 -0.12 1.08 1.00 0.35 -0.47 628.292
0.99 995.15 4053.98 7452.02 -47.01 2.56 41.38 -0.29 -0.24 0.8 1.07 0.36 -0.47 628.792
0.96 995.16 4053.99 7452.02 -45.57 4.46 1.69 0.02 0.44 0.89 1.15 0.25 -0.69 629.291
1.37 995.11 4053.99 7452.02 -83.64 -32.55 6.86 -0.01 0.93 0.65 1.18 0.04 -0.82 629.794
0.78 995.18 4053.99 7452.02 64.82 -47.43 59.17 0.22 0.67 0.63 1.13 -0.05 -0.84 630.295
0.85 995.17 4053.99 7452.02 37.95 6.46 -5.71 -0.61 1.10 1.1 1.04 0.18 -0.75 630.794
0.66 995.19 4053.99 7452.02 2.98 12.14 34.06 -0.11 0.44 0.8 1.06 0.17 -0.75 631.296
0.67 995.19 4053.99 7452.02 20.68 33.47 -0.90 0.05 0.22 1.08 1.16 0.27 -0.66 631.796
0.73 995.18 4053.99 7452.02 -1.74 11.78 -6.62 0.21 0.07 0.9 1.26 0.27 -0.63 632.297
0.80 995.18 4053.99 7452.02 9.15 2.84 4.89 0.16 -0.05 1.01 1.27 0.28 -0.58 632.796
0.39 995.22 4053.99 7452.03 0.32 -11.63 -9.79 0.14 0.00 1.06 1.20 0.31 -0.58 633.299
-0.02 995.27 4053.99 7452.03 18.00 14.41 4.05 0.14 0.06 1.05 1.18 0.31 -0.58 633.8
0.55 995.21 4053.99 7452.03 -28.31 36.34 3.13 0.10 0.06 0.98 1.20 0.29 -0.61 634.301
1.05 995.15 4053.99 7452.03 43.04 92.46 8.72 0.05 0.01 1.08 1.34 0.29 -0.50 634.802
1.44 995.10 4053.99 7452.03 -25.46 73.25 11.44 0.18 -0.04 0.89 1.44 0.24 -0.37 635.307
0.66 995.19 4053.99 7452.03 -38.07 75.14 -27.63 0.09 -0.02 0.9 1.30 0.29 -0.23 635.808
0.59 995.20 4053.99 7452.03 26.59 1.24 20.51 0.06 -0.08 1.0 1.20 0.32 -0.22 636.306
1.04 995.15 4053.99 7452.03 -0.05 -92.16 -5.06 0.09 -0.10 0.99 1.32 0.30 -0.27 636.81
1.35 995.11 4053.99 7452.03 8.12 -69.12 27.91 0.14 -0.13 1.12 1.34 0.30 -0.37 637.309
0.72 995.19 4053.99 7452.03 41.57 -80.59 -12.82 0.10 0.04 0.9 1.28 0.31 -0.51 637.811
0.78 995.18 4053.99 7452.03 -4.15 -32.09 0.96 0.09 -0.11 1.01 1.26 0.32 -0.48 638.311
0.46 995.22 4053.99 7452.03 -10.43 -2.52 -1.44 -0.11 0.03 0.92 1.16 0.32 -0.55 638.814
0.83 995.17 4053.99 7452.03 2.31 12.01 1.19 0.14 -0.11 1.14 1.18 0.33 -0.55 639.311
0.35 995.23 4053.99 7452.03 -4.00 13.10 -2.46 -0.26 -0.62 1.13 1.22 0.34 -0.51 639.815
0.47 995.21 4053.99 7452.03 -8.28 15.33 3.99 0.10 -0.09 1.05 1.19 0.36 -0.52 640.314
0.28 995.24 4053.99 7452.03 19.66 3.62 16.29 0.04 -0.05 1.08 1.25 0.33 -0.52 640.816
0.51 995.21 4053.99 7452.03 -9.76 -34.46 -35.83 0.29 -0.19 1.08 1.27 0.34 -0.47 641.319
0.29 995.24 4053.99 7452.03 -14.55 -4.58 20.85 -0.23 0.03 0.98 0.96 0.31 -0.56 641.819
0.95 995.16 4053.99 7452.03 3.58 -18.24 -17.75 -0.29 0.03 1.01 0.91 0.28 -0.55 642.32
0.32 995.23 4053.99 7452.03 -11.98 12.95 10.42 -0.38 0.05 0.88 0.86 0.25 -0.57 642.822
1.51 995.09 4053.99 7452.03 4.09 6.05 -5.17 -0.35 0.11 0.95 0.89 0.26 -0.58 643.319
0.54 995.21 4053.99 7452.03 3.52 0.03 -8.49 -0.44 0.01 0.93 0.86 0.24 -0.58 643.82
0.41 995.22 4053.99 7452.03 0.38 -4.29 11.11 -0.51 0.18 0.82 0.82 0.19 -0.60 644.322
0.10 995.26 4053.99 7452.03 15.72 -27.50 -2.71 -0.28 0.05 0.96 0.88 0.25 -0.59 644.826
0.74 995.18 4053.99 7452.03 -24.00 -75.65 -13.61 -0.28 0.07 0.99 0.83 0.24 -0.55 645.328
0.60 995.20 4053.99 7452.03 -7.17 -2.45 18.84 -0.54 -0.09 0.81 0.75 0.17 -0.52 645.827
0.32 995.23 4053.99 7452.03 -25.44 -10.51 -24.51 -0.46 0.31 0.85 0.79 0.18 -0.58 646.33
-0.07 995.28 4053.99 7452.03 -5.38 -43.82 3.04 -0.66 0.19 0.9 0.72 0.11 -0.54 646.83
0.34 995.23 4053.99 7452.03 4.11 -20.01 22.36 0.39 -0.84 0.46 0.71 0.11 -0.51 647.329
0.73 995.18 4053.99 7452.03 16.49 -9.11 -9.77 -0.72 -0.01 0.78 0.73 0.16 -0.48 647.831
0.73 995.18 4053.99 7452.03 8.79 5.85 6.95 -0.46 0.08 0.81 0.74 0.17 -0.49 648.328
0.38 995.23 4053.99 7452.03 -19.47 9.95 14.16 -0.49 0.40 0.87 0.76 0.19 -0.50 648.833
0.74 995.18 4053.99 7452.03 42.52 -4.96 -23.21 -0.43 0.15 0.97 0.75 0.20 -0.45 649.334
0.38 995.23 4053.99 7452.03 8.51 -24.25 24.07 -0.54 0.05 0.85 0.74 0.18 -0.47 649.834
0.86 995.17 4053.99 7452.03 -6.63 13.75 -50.15 -0.37 0.29 0.85 0.79 0.19 -0.57 650.336
0.08 995.26 4053.99 7452.03 -36.15 -11.88 -7.27 -0.53 0.20 0.35 0.72 -0.02 -0.60 650.84
0.31 995.23 4053.99 7452.03 -27.05 -6.87 -9.18 -0.44 0.30 0.41 0.75 -0.07 -0.64 651.339
0.38 995.23 4053.99 7452.03 14.91 41.17 -26.45 -0.73 0.42 0.53 0.68 -0.04 -0.54 651.84
0.78 995.18 4053.99 7452.03 -2.09 5.36 -16.60 -0.82 0.32 0.42 0.70 -0.10 -0.57 652.341
0.91 995.16 4053.99 7452.03 -36.72 -27.59 0.37 -0.92 0.37 0.35 0.70 -0.10 -0.56 652.844
0.48 995.21 4053.99 7452.03 -9.08 29.06 -2.14 -0.92 0.55 0.3 0.69 -0.13 -0.53 653.343
0.64 995.19 4053.99 7452.03 5.50 3.63 2.08 -1.08 0.54 0.34 0.69 -0.14 -0.52 653.841
1.01 995.15 4053.99 7452.03 14.16 7.13 2.49 -1.24 0.65 0.35 0.69 -0.16 -0.53 654.344
0.75 995.18 4053.99 7452.03 2.94 3.66 -11.41 -1.12 0.57 0.23 0.71 -0.20 -0.55 654.845
0.55 995.21 4053.99 7452.03 -0.11 -2.71 12.88 -0.89 0.37 0.31 0.72 -0.22 -0.57 655.347
0.77 995.18 4053.99 7452.03 1.92 -8.39 -6.96 -0.83 0.49 0.22 0.72 -0.23 -0.56 655.847
0.33 995.23 4053.99 7452.03 8.72 4.82 14.02 -0.70 0.26 0.21 0.73 -0.24 -0.56 656.348
0.09 995.26 4053.99 7452.03 2.61 11.69 -10.32 -0.63 0.35 0.14 0.72 -0.24 -0.55 656.85
1.10 995.14 4053.99 7452.03 -4.07 -6.64 6.01 -0.76 0.36 0.15 0.72 -0.24 -0.54 657.35
0.41 995.22 4053.99 7452.03 -0.23 -3.65 4.51 -0.76 0.42 0.23 0.71 -0.18 -0.57 657.851
0.86 995.17 4053.99 7452.03 2.28 2.12 -1.56 -0.98 0.45 0.11 0.71 -0.22 -0.54 658.352
0.40 995.22 4053.99 7452.03 7.85 14.95 9.37 -0.86 0.54 0.19 0.71 -0.18 -0.56 658.852
0.62 995.20 4053.99 7452.03 -10.58 -24.81 -13.63 -1.10 0.63 0.16 0.71 -0.21 -0.54 659.358
0.72 995.18 4053.99 7452.03 10.30 27.44 9.93 -1.13 0.66 0.26 0.71 -0.19 -0.56 659.855
0.67 995.19 4053.99 7452.03 -1.82 -7.42 2.93 -1.11 0.60 0.21 0.70 -0.19 -0.55 660.357
0.78 995.18 4053.99 7452.03 -4.30 1.84 12.67 -0.89 0.46 0.34 0.70 -0.16 -0.53 660.857
0.61 995.20 4054.00 7452.03 -4.50 -13.11 -3.61 -0.85 0.52 0.29 0.69 -0.17 -0.54 661.36
0.91 995.16 4054.00 7452.03 13.76 -3.79 10.99 -0.85 0.26 0.32 0.70 -0.17 -0.53 661.86
0.75 995.18 4054.00 7452.03 1.78 10.50 1.68 -0.67 0.36 0.24 0.69 -0.18 -0.51 662.36
0.73 995.18 4054.00 7452.03 1.34 9.20 -8.93 -0.82 0.32 0.17 0.69 -0.19 -0.51 662.86
0.85 995.17 4054.00 7452.03 -12.36 16.71 -18.02 -0.80 0.44 0.15 0.71 -0.21 -0.54 663.365
0.69 995.19 4054.00 7452.03 -3.52 -12.33 6.26 -0.96 0.58 0.1 0.72 -0.23 -0.56 663.864
0.53 995.21 4054.00 7452.04 10.25 4.74 -14.39 -0.85 0.60 0.1 0.71 -0.19 -0.57 664.366
-0.07 995.28 4054.00 7452.04 0.75 -33.25 -6.69 -1.08 0.81 0.11 0.74 -0.25 -0.57 664.867
0.97 995.15 4054.00 7452.04 13.00 6.26 0.38 -1.08 0.72 0.17 0.73 -0.22 -0.58 665.365
0.36 995.23 4054.00 7452.04 -3.92 -8.61 -1.91 -1.10 0.76 0.15 0.73 -0.22 -0.57 665.868
0.16 995.25 4054.00 7452.04 18.95 16.15 10.02 -1.06 0.68 0.24 0.73 -0.24 -0.58 666.37
0.11 995.26 4054.00 7452.04 -8.01 -3.91 -4.46 -0.96 0.70 0.19 0.72 -0.22 -0.57 666.87
0.99 995.15 4054.00 7452.04 9.19 2.60 -0.25 -0.86 0.49 0.27 0.73 -0.23 -0.58 667.369
0.76 995.18 4054.00 7452.04 12.93 -18.70 0.17 -0.64 0.34 0.17 0.74 -0.24 -0.58 667.872
-0.03 995.27 4054.00 7452.04 19.71 1.62 7.89 -0.37 -0.20 0.11 0.74 -0.26 -0.57 668.374
0.85 995.17 4054.00 7452.04 1.03 -1.58 -7.23 -0.67 0.28 0.03 0.74 -0.28 -0.55 668.873
0.57 995.20 4054.00 7452.04 -2.71 -8.31 5.32 -0.96 0.50 0.01 0.74 -0.29 -0.52 669.374
0.32 995.23 4054.00 7452.04 13.60 -10.26 -14.03 -0.80 0.53 0.14 0.75 -0.24 -0.60 669.879
0.39 995.22 4054.00 7452.04 -1.67 -6.40 1.01 -1.06 0.74 0.03 0.75 -0.26 -0.60 670.377
0.94 995.16 4054.00 7452.04 20.40 22.68 -5.73 -0.74 0.71 0.23 0.77 -0.22 -0.66 670.879
0.54 995.21 4054.00 7452.04 4.33 14.06 19.41 -0.87 0.73 0.2 0.80 -0.20 -0.70 671.379
0.59 995.20 4054.00 7452.04 25.86 -24.96 -19.96 -0.81 0.68 0.2 0.81 -0.18 -0.71 671.884
-0.13 995.28 4054.00 7452.04 9.90 -19.01 -7.77 -0.79 0.66 0.31 0.84 -0.19 -0.73 672.384
0.47 995.21 4054.00 7452.04 2.57 0.25 2.56 -0.54 0.54 0.24 0.82 -0.18 -0.72 672.88
0.46 995.22 4054.00 7452.04 28.26 -2.14 -25.99 -0.64 0.80 0.2 0.87 -0.18 -0.75 673.385
0.02 995.27 4054.00 7452.04 18.70 -13.34 8.25 -0.86 0.63 0.2 0.87 -0.19 -0.75 673.886
0.60 995.20 4054.00 7452.04 6.77 -0.21 -4.51 -0.77 0.44 0.32 0.83 -0.13 -0.73 674.385
0.64 995.19 4054.00 7452.04 -6.76 22.56 85.18 -0.61 0.34 0.53 0.82 -0.03 -0.72 674.887
0.72 995.18 4054.00 7452.04 -34.89 26.35 28.13 -0.25 0.69 0.73 0.98 0.06 -0.78 675.388
0.50 995.21 4054.00 7452.04 -31.17 8.78 13.06 -0.06 0.62 0.59 1.04 -0.01 -0.82 675.89
0.88 995.17 4054.00 7452.04 -1.92 -10.89 -27.14 0.15 0.77 0.4 1.10 -0.03 -0.83 676.391
0.79 995.18 4054.00 7452.04 -31.47 -10.55 18.30 0.09 0.99 0.45 1.13 -0.08 -0.85 676.892
0.71 995.19 4054.00 7452.04 -37.05 -25.00 -10.65 0.29 1.06 -0.05 1.20 -0.21 -0.84 677.393
0.93 995.16 4054.00 7452.04 -63.88 -21.68 31.31 0.23 1.12 -0.21 1.16 -0.37 -0.79 677.894
0.80 995.17 4054.00 7452.04 10.06 -8.01 54.14 0.16 0.82 -0.66 1.06 -0.51 -0.65 678.392
1.15 995.13 4054.00 7452.04 35.41 46.10 30.84 0.07 0.84 -0.37 1.02 -0.39 -0.74 678.893
1.13 995.14 4054.00 7452.04 -31.75 -27.81 27.48 0.02 0.95 -0.74 1.04 -0.40 -0.75 679.396
0.78 995.18 4054.00 7452.04 7.78 -0.80 24.11 -0.02 0.83 -0.6 1.00 -0.39 -0.73 679.896
1.05 995.15 4054.00 7452.04 -8.69 -24.16 -13.11 -0.08 0.86 -0.74 1.00 -0.43 -0.70 680.399
1.32 995.11 4054.00 7452.04 -9.06 -5.52 -16.51 -0.09 0.81 -0.81 0.99 -0.47 -0.66 680.899
0.47 995.21 4054.00 7452.04 -27.37 -17.48 0.27 -0.16 0.81 -1.1 0.97 -0.49 -0.62 681.4
0.83 995.17 4054.00 7452.04 5.82 -12.26 -34.01 -0.14 0.65 -0.97 0.96 -0.51 -0.57 681.902
0.80 995.18 4054.00 7452.04 -4.09 14.26 0.64 -0.10 0.58 -0.68 0.98 -0.53 -0.55 682.4
1.06 995.14 4054.00 7452.04 10.76 26.00 28.23 -0.09 0.50 -0.53 0.97 -0.51 -0.57 682.902
0.52 995.21 4054.01 7452.04 1.19 35.61 51.82 -0.03 0.56 -0.52 0.94 -0.45 -0.65 683.402
1.33 995.11 4054.01 7452.04 5.96 -27.01 -7.27 -0.15 0.67 -1.0 0.95 -0.44 -0.67 683.915
1.34 995.11 4054.01 7452.04 -2.84 -0.21 21.41 -0.09 0.71 -0.78 0.97 -0.42 -0.71 684.405
1.03 995.15 4054.01 7452.04 -0.80 -0.04 18.02 -0.14 0.51 -0.89 0.95 -0.42 -0.67 684.906
0.37 995.23 4054.01 7452.04 26.87 -2.53 -9.58 -0.16 0.53 -0.84 0.92 -0.41 -0.67 685.407
1.00 995.15 4054.01 7452.04 -5.51 -26.73 -6.04 -0.09 0.59 -0.63 0.92 -0.41 -0.66 685.91
1.29 995.12 4054.01 7452.04 0.11 7.08 -13.39 -0.15 0.54 -0.58 0.91 -0.45 -0.61 686.408
1.00 995.15 4054.01 7452.04 -15.86 6.23 -9.29 -0.30 0.73 -0.73 0.92 -0.45 -0.61 686.928
0.97 995.16 4054.01 7452.04 -9.65 3.51 -7.18 -0.16 0.48 -0.88 0.92 -0.49 -0.57 687.411
0.76 995.18 4054.01 7452.04 3.25 -0.46 8.15 -0.17 0.62 -0.93 0.94 -0.49 -0.57 687.911
1.15 995.13 4054.01 7452.04 -15.46 -12.86 -14.39 -0.22 0.66 -0.99 0.95 -0.51 -0.55 688.417
1.01 995.15 4054.01 7452.04 18.06 16.61 -0.40 -0.15 0.55 -0.91 0.97 -0.52 -0.55 688.933
1.31 995.12 4054.01 7452.04 37.86 32.95 -15.93 0.03 0.67 -0.6 0.99 -0.49 -0.64 689.417
0.90 995.16 4054.01 7452.04 10.81 -2.39 -10.67 0.15 0.68 -0.49 1.09 -0.45 -0.72 689.917
1.40 995.10 4054.01 7452.04 14.94 41.01 -41.24 0.49 0.63 -0.35 1.25 -0.43 -0.75 690.418
1.70 995.07 4054.01 7452.04 3.70 -60.30 4.04 0.83 0.49 -0.21 1.49 -0.33 -0.69 690.917
1.95 995.04 4054.01 7452.04 39.09 -22.70 19.24 0.57 0.80 -0.19 1.31 -0.20 -0.83 691.421
1.53 995.09 4054.01 7452.04 16.40 -40.58 7.53 0.49 0.96 -0.11 1.20 -0.19 -0.85 691.92
1.18 995.13 4054.01 7452.04 7.27 -0.36 1.14 0.24 1.03 -0.25 1.10 -0.23 -0.84 692.419
1.31 995.12 4054.01 7452.04 16.55 -22.22 14.67 0.10 0.86 -0.08 1.00 -0.17 -0.82 692.924
1.16 995.13 4054.01 7452.04 -20.44 20.54 2.87 0.06 0.78 -0.17 0.99 -0.22 -0.81 693.424
1.96 995.04 4054.01 7452.04 -1.71 5.93 26.21 -0.01 0.92 -0.18 0.97 -0.23 -0.81 693.924
0.94 995.16 4054.01 7452.04 -8.79 -29.26 -27.97 -0.14 0.93 -0.45 0.94 -0.27 -0.77 694.428
1.06 995.14 4054.01 7452.04 -12.20 -24.51 -8.98 -0.13 1.00 -0.4 0.95 -0.31 -0.76 694.929
0.89 995.16 4054.01 7452.04 21.40 7.13 -21.75 -0.02 1.17 -0.54 0.96 -0.36 -0.74 695.429
0.47 995.21 4054.01 7452.04 29.21 -11.79 1.82 -0.10 1.21 -0.06 1.01 -0.24 -0.81 695.929
1.59 995.08 4054.01 7452.04 -3.43 13.58 -7.10 -0.12 1.42 -0.09 0.98 -0.20 -0.81 696.43
0.82 995.17 4054.01 7452.04 19.42 17.42 -13.23 -0.07 1.24 -0.01 1.00 -0.18 -0.82 696.932
1.06 995.14 4054.01 7452.04 3.71 -15.81 -18.32 0.17 0.63 0.16 1.00 -0.13 -0.82 697.434
1.02 995.15 4054.01 7452.04 9.44 9.90 -2.54 0.07 0.80 0.1 0.99 -0.15 -0.81 697.931
0.97 995.15 4054.01 7452.04 -1.57 27.89 10.50 0.08 0.70 0.13 1.00 -0.16 -0.81 698.434
1.26 995.12 4054.01 7452.04 12.83 -4.16 -14.40 -0.01 0.98 0.14 0.98 -0.15 -0.82 698.937
1.11 995.14 4054.01 7452.04 -5.84 -10.84 14.69 -0.09 1.04 0.26 0.98 -0.13 -0.82 699.439
0.89 995.16 4054.01 7452.04 -18.44 -38.40 0.96 -0.34 1.47 -0.0 0.98 -0.19 -0.81 699.938
0.97 995.15 4054.01 7452.04 3.05 1.24 0.45 -0.13 1.19 -0.03 0.96 -0.24 -0.79 700.435
0.99 995.15 4054.01 7452.04 11.38 0.95 -9.88 -0.04 0.95 0.04 0.97 -0.19 -0.81 700.939
0.76 995.18 4054.01 7452.04 0.25 2.69 -13.81 -0.18 0.94 -0.05 0.97 -0.24 -0.79 701.44
0.98 995.15 4054.01 7452.04 -28.45 -41.88 37.97 -0.12 0.97 0.02 0.92 -0.23 -0.78 701.961
1.15 995.13 4054.01 7452.04 -4.81 10.71 6.73 -0.27 0.97 -0.21 0.87 -0.25 -0.73 702.441
1.05 995.15 4054.01 7452.04 -2.92 -1.54 33.59 -0.32 0.96 -0.26 0.86 -0.26 -0.72 702.963
1.30 995.12 4054.01 7452.04 -7.45 9.49 34.42 -0.28 0.99 -0.13 0.86 -0.18 -0.75 703.443
0.88 995.17 4054.01 7452.04 4.59 -5.29 2.68 -0.21 0.92 -0.09 0.87 -0.12 -0.76 703.987
1.15 995.13 4054.01 7452.04 4.52 -3.73 -7.25 -0.26 0.93 -0.17 0.86 -0.13 -0.76 704.445
1.45 995.10 4054.01 7452.04 -7.43 4.11 -9.62 -0.27 0.95 -0.2 0.86 -0.18 -0.74 704.969
1.23 995.12 4054.01 7452.04 8.10 -3.43 -1.94 -0.25 0.92 -0.16 0.85 -0.18 -0.74 705.448
1.59 995.08 4054.01 7452.04 9.87 4.17 2.81 -0.24 1.00 -0.17 0.86 -0.15 -0.75 705.947
1.57 995.08 4054.01 7452.04 -2.53 -5.27 1.12 -0.25 0.96 -0.14 0.87 -0.15 -0.75 706.45
1.08 995.14 4054.01 7452.04 -0.11 -1.84 0.90 -0.28 0.98 -0.14 0.86 -0.16 -0.75 706.973
1.25 995.12 4054.01 7452.04 -0.30 5.96 -4.45 -0.26 0.93 -0.15 0.85 -0.16 -0.75 707.452
1.33 995.11 4054.01 7452.04 -0.98 -0.05 -2.09 -0.28 0.96 -0.17 0.85 -0.17 -0.74 708.016
1.29 995.12 4054.01 7452.04 0.96 -2.65 1.57 -0.32 0.95 -0.2 0.85 -0.19 -0.74 708.453
0.75 995.18 4054.01 7452.04 2.55 1.30 -2.89 -0.33 0.94 -0.22 0.84 -0.18 -0.73 709.019
1.34 995.11 4054.01 7452.04 3.52 -1.00 -3.23 -0.33 0.94 -0.21 0.83 -0.19 -0.72 709.456
0.83 995.17 4054.01 7452.04 0.61 2.00 -0.50 -0.32 0.93 -0.22 0.83 -0.19 -0.72 710.019
1.28 995.12 4054.01 7452.04 -0.31 -0.33 -3.26 -0.34 0.93 -0.23 0.83 -0.20 -0.72 710.459
1.14 995.13 4054.01 7452.04 13.59 7.07 5.67 -0.34 0.97 -0.22 0.84 -0.19 -0.73 710.959
1.41 995.10 4054.01 7452.04 63.65 31.75 -17.88 -0.00 0.74 0.17 0.91 -0.03 -0.77 711.463
1.16 995.13 4054.01 7452.04 37.24 15.02 -38.85 -0.02 1.01 0.51 0.94 0.06 -0.78 711.963
1.32 995.11 4054.01 7452.04 32.00 -12.85 -47.85 -0.33 0.60 0.71 0.85 0.11 -0.69 712.465
1.23 995.12 4054.01 7452.04 -25.56 -23.12 -36.52 -0.61 0.59 0.62 0.77 0.00 -0.66 713.028
1.50 995.09 4054.01 7452.04 -11.10 24.04 -21.84 -0.78 0.54 0.39 0.74 -0.16 -0.62 713.468
0.77 995.18 4054.01 7452.04 -22.75 13.93 -7.95 -0.69 0.83 0.03 0.83 -0.27 -0.69 713.987
0.99 995.15 4054.01 7452.04 -18.63 1.24 27.62 -0.71 0.80 -0.08 0.86 -0.33 -0.67 714.467
0.93 995.16 4054.01 7452.04 -7.37 -5.29 8.45 -0.66 0.76 -0.1 0.83 -0.33 -0.63 715.022
0.59 995.20 4054.01 7452.04 1.93 -9.57 -0.06 -0.72 0.73 -0.15 0.82 -0.32 -0.62 715.468
0.37 995.23 4054.01 7452.04 2.97 8.10 1.44 -0.74 0.85 -0.11 0.83 -0.31 -0.63 716.044
1.40 995.10 4054.01 7452.04 3.26 1.08 0.31 -0.68 0.75 -0.06 0.83 -0.31 -0.63 716.468
0.92 995.16 4054.01 7452.04 2.34 5.48 0.04 -0.63 0.81 -0.08 0.84 -0.31 -0.64 716.969
0.62 995.20 4054.01 7452.04 2.09 -2.81 0.49 -0.63 0.80 -0.05 0.84 -0.32 -0.64 717.471
1.48 995.09 4054.01 7452.04 2.24 -1.98 0.56 -0.65 0.78 -0.07 0.83 -0.31 -0.63 717.976
0.91 995.16 4054.01 7452.04 2.61 0.80 0.44 -0.65 0.78 -0.07 0.83 -0.31 -0.64 718.472
1.05 995.15 4054.01 7452.04 2.58 -0.68 0.17 -0.65 0.79 -0.06 0.83 -0.32 -0.62 718.994
0.66 995.19 4054.01 7452.04 2.32 0.45 0.60 -0.65 0.79 -0.07 0.83 -0.32 -0.63 719.474
1.06 995.14 4054.01 7452.04 2.33 0.84 0.45 -0.65 0.79 -0.06 0.83 -0.32 -0.62 719.986
1.14 995.13 4054.01 7452.04 2.37 0.37 0.50 -0.65 0.79 -0.07 0.83 -0.32 -0.63 720.476
1.05 995.15 4054.01 7452.04 2.19 0.34 0.39 -0.65 0.78 -0.07 0.83 -0.32 -0.64 721.074
0.68 995.19 4054.01 7452.04 2.27 0.25 0.44 -0.66 0.78 -0.07 0.83 -0.32 -0.63 721.478
0.83 995.17 4054.01 7452.04 2.07 0.80 0.57 -0.64 0.79 -0.07 0.83 -0.32 -0.63 722.041
0.71 995.19 4054.01 7452.04 2.38 0.24 0.41 -0.65 0.78 -0.07 0.83 -0.32 -0.63 722.481
1.15 995.13 4054.01 7452.04 2.21 -0.29 0.44 -0.65 0.78 -0.06 0.83 -0.32 -0.63 723.043
0.97 995.15 4054.01 7452.04 2.55 0.38 0.35 -0.66 0.78 -0.06 0.83 -0.31 -0.63 723.483
0.55 995.20 4054.01 7452.04 2.22 0.30 0.60 -0.66 0.79 -0.06 0.83 -0.31 -0.64 724.08
0.96 995.16 4054.01 7452.04 2.29 0.08 0.73 -0.65 0.78 -0.07 0.83 -0.31 -0.64 724.486
1.13 995.14 4054.01 7452.04 2.41 0.54 0.62 -0.67 0.79 -0.06 0.83 -0.31 -0.63 725.08
0.71 995.19 4054.01 7452.04 2.26 0.28 0.48 -0.65 0.78 -0.06 0.83 -0.31 -0.63 725.487
1.45 995.10 4054.01 7452.04 2.48 0.17 0.38 -0.65 0.78 -0.07 0.83 -0.31 -0.63 726.066
1.48 995.09 4054.02 7452.04 2.35 0.35 0.67 -0.65 0.79 -0.07 0.83 -0.31 -0.63 726.49
1.64 995.08 4054.02 7452.04 2.23 0.16 0.38 -0.67 0.78 -0.07 0.83 -0.31 -0.63 727.063
0.70 995.19 4054.02 7452.04 2.26 1.91 0.30 -0.66 0.79 -0.07 0.84 -0.32 -0.63 727.491
0.72 995.18 4054.02 7452.04 2.71 0.68 0.03 -0.66 0.80 -0.06 0.83 -0.31 -0.64 728.055
1.25 995.12 4054.02 7452.04 2.31 -2.76 0.59 -0.71 0.76 -0.07 0.83 -0.32 -0.63 728.495
1.11 995.14 4054.02 7452.04 2.32 0.17 0.60 -0.65 0.79 -0.07 0.83 -0.32 -0.64 728.995
1.16 995.13 4054.02 7452.04 2.61 2.98 0.26 -0.65 0.78 -0.07 0.83 -0.32 -0.63 729.495
1.09 995.14 4054.02 7452.04 2.48 0.17 0.58 -0.65 0.79 -0.06 0.83 -0.32 -0.63 730.074
0.80 995.17 4054.02 7452.04 2.30 1.20 0.60 -0.66 0.79 -0.07 0.84 -0.32 -0.63 730.498
0.46 995.22 4054.02 7452.04 2.59 4.27 0.52 -0.66 0.79 -0.06 0.84 -0.32 -0.64 731.095
0.99 995.15 4054.02 7452.04 2.43 4.35 0.34 -0.65 0.80 -0.06 0.84 -0.32 -0.64 731.499
0.94 995.16 4054.02 7452.04 2.54 2.04 0.31 -0.65 0.78 -0.07 0.84 -0.31 -0.63 732.0
1.32 995.11 4054.02 7452.04 2.33 2.58 0.42 -0.65 0.79 -0.06 0.83 -0.31 -0.64 732.502
0.99 995.15 4054.02 7452.04 2.34 -0.09 0.72 -0.65 0.79 -0.06 0.83 -0.31 -0.63 733.004
0.90 995.16 4054.02 7452.04 2.30 0.76 0.56 -0.65 0.78 -0.06 0.84 -0.31 -0.63 733.503
0.75 995.18 4054.02 7452.04 0.02 -2.21 0.50 -0.65 0.79 -0.07 0.83 -0.31 -0.63 734.101
0.62 995.20 4054.02 7452.04 2.40 0.00 0.69 -0.65 0.78 -0.07 0.84 -0.31 -0.62 734.505
0.75 995.18 4054.02 7452.04 2.37 0.17 0.58 -0.66 0.77 -0.07 0.84 -0.32 -0.63 735.105
1.03 995.15 4054.02 7452.04 2.59 0.89 0.52 -0.65 0.78 -0.06 0.83 -0.31 -0.64 735.507
1.11 995.14 4054.02 7452.04 2.49 -0.38 0.72 -0.65 0.74 -0.06 0.83 -0.32 -0.63 736.106
1.42 995.10 4054.02 7452.04 2.07 0.25 0.30 -0.66 0.78 -0.06 0.83 -0.31 -0.64 736.509
1.08 995.14 4054.02 7452.04 2.43 0.15 0.38 -0.65 0.79 -0.07 0.83 -0.31 -0.64 737.108
0.87 995.17 4054.02 7452.04 2.71 0.46 0.54 -0.66 0.81 -0.07 0.84 -0.31 -0.63 737.511
0.97 995.16 4054.02 7452.04 2.26 0.34 0.43 -0.70 0.90 -0.06 0.83 -0.32 -0.63 738.033
1.05 995.15 4054.02 7452.04 2.10 0.11 0.21 -0.63 0.79 -0.07 0.84 -0.32 -0.64 738.513
1.22 995.13 4054.02 7452.04 2.15 -5.29 0.70 -0.65 0.80 -0.06 0.84 -0.32 -0.63 739.037
0.93 995.16 4054.02 7452.04 2.59 1.11 0.32 -0.64 0.79 -0.07 0.84 -0.31 -0.63 739.515
0.82 995.17 4054.02 7452.04 2.01 1.89 0.33 -0.65 0.81 -0.06 0.84 -0.31 -0.63 740.073
0.55 995.20 4054.02 7452.04 2.20 -2.23 0.38 -0.65 0.80 -0.07 0.84 -0.31 -0.65 740.519
0.29 995.24 4054.02 7452.04 2.32 0.59 0.52 -0.66 0.78 -0.06 0.83 -0.31 -0.63 741.082
1.26 995.12 4054.02 7452.04 2.55 0.70 0.49 -0.65 0.79 -0.06 0.84 -0.31 -0.63 741.52
1.08 995.14 4054.02 7452.04 2.53 0.67 0.41 -0.65 0.81 -0.07 0.83 -0.31 -0.63 742.119
0.45 995.22 4054.02 7452.04 2.09 0.22 0.55 -0.66 0.79 -0.07 0.83 -0.31 -0.62 742.522
0.73 995.18 4054.02 7452.04 2.48 -0.07 0.71 -0.66 0.78 -0.06 0.83 -0.31 -0.63 743.05
0.89 995.16 4054.02 7452.04 2.08 0.77 0.51 -0.66 0.80 -0.06 0.83 -0.32 -0.63 743.524
0.69 995.19 4054.02 7452.04 2.60 4.77 0.24 -0.65 0.80 -0.07 0.83 -0.31 -0.63 744.124
0.86 995.17 4054.02 7452.04 2.34 2.15 0.62 -0.70 0.92 -0.07 0.83 -0.31 -0.63 744.526
0.25 995.24 4054.02 7452.04 1.98 -0.93 0.45 -0.66 0.78 -0.06 0.83 -0.32 -0.63 745.116
0.27 995.24 4054.02 7452.04 2.15 -4.33 0.58 -0.66 0.78 -0.07 0.83 -0.31 -0.63 745.529
1.17 995.13 4054.02 7452.04 4.40 0.75 0.17 -0.64 0.82 -0.06 0.83 -0.31 -0.63 746.116
0.93 995.16 4054.02 7452.04 1.86 1.28 0.26 -0.65 0.79 -0.07 0.83 -0.31 -0.64 746.53
1.19 995.13 4054.02 7452.04 2.45 1.12 0.28 -0.64 0.78 -0.06 0.83 -0.31 -0.63 747.11
0.70 995.19 4054.02 7452.04 2.48 0.90 0.47 -0.67 0.72 -0.06 0.83 -0.32 -0.64 747.532
0.99 995.15 4054.02 7452.04 2.45 0.47 0.47 -0.65 0.78 -0.07 0.83 -0.32 -0.64 748.125
1.05 995.15 4054.02 7452.04 2.45 -0.08 0.80 -0.60 0.59 -0.06 0.84 -0.32 -0.64 748.535
0.66 995.19 4054.02 7452.04 2.12 0.50 0.19 -0.66 0.79 -0.07 0.83 -0.32 -0.64 749.114
0.85 995.17 4054.02 7452.04 2.44 1.56 0.71 -0.64 0.78 -0.06 0.84 -0.32 -0.64 749.536
0.74 995.18 4054.02 7452.04 1.96 0.18 0.39 -0.65 0.79 -0.08 0.83 -0.31 -0.64 750.117
1.40 995.11 4054.02 7452.04 2.47 0.65 0.46 -0.65 0.78 -0.07 0.83 -0.32 -0.64 750.538
0.87 995.17 4054.02 7452.04 2.32 0.20 0.65 -0.65 0.79 -0.08 0.83 -0.32 -0.64 751.129
1.03 995.15 4054.02 7452.04 2.15 -0.35 0.63 -0.65 0.79 -0.07 0.84 -0.32 -0.65 751.541
0.31 995.23 4054.02 7452.04 2.41 0.23 0.45 -0.65 0.79 -0.07 0.83 -0.31 -0.64 752.139
1.06 995.14 4054.02 7452.04 2.49 -6.43 1.11 -0.61 0.76 -0.06 0.84 -0.32 -0.64 752.543
1.03 995.15 4054.02 7452.04 2.69 0.67 0.38 -0.63 0.87 -0.06 0.83 -0.32 -0.64 753.112
0.65 995.19 4054.02 7452.04 1.86 -1.82 0.22 -0.60 0.77 -0.07 0.84 -0.31 -0.64 753.545
0.49 995.21 4054.02 7452.04 2.66 1.61 0.36 -0.62 0.81 -0.07 0.84 -0.31 -0.64 754.111
1.06 995.14 4054.02 7452.04 2.23 0.20 0.44 -0.63 0.82 -0.07 0.85 -0.32 -0.65 754.546
0.44 995.22 4005.40 7452.04 2.37 0.03 0.45 -0.62 0.81 -0.05 0.85 -0.31 -0.65 755.134
1.00 995.15 4054.02 7452.04 2.27 0.12 0.38 -0.61 0.80 -0.06 0.84 -0.31 -0.65 755.548
0.19 995.25 4054.02 7452.04 2.46 0.29 0.55 -0.63 0.82 -0.07 0.85 -0.32 -0.65 756.149
0.61 995.20 4054.02 7452.04 2.84 0.49 0.74 -0.60 0.81 -0.06 0.85 -0.31 -0.65 756.55
1.22 995.13 4054.02 7452.04 2.35 0.03 0.28 -0.62 0.83 -0.06 0.84 -0.31 -0.65 757.131
0.66 995.19 4054.02 7452.04 2.32 -0.15 0.83 -0.61 0.79 -0.06 0.85 -0.31 -0.65 757.554
0.44 995.22 4054.02 7452.04 2.55 0.03 0.63 -0.63 0.82 -0.06 0.85 -0.32 -0.65 758.153
0.27 995.24 4054.02 7452.04 2.35 0.26 0.38 -0.63 0.83 -0.06 0.84 -0.31 -0.64 758.555
1.06 995.14 4054.02 7452.04 2.62 0.45 0.68 -0.61 0.81 -0.06 0.84 -0.31 -0.64 759.122
0.31 995.23 4054.02 7452.04 2.30 -0.34 0.32 -0.62 0.81 -0.06 0.85 -0.31 -0.65 759.559
0.73 995.18 4054.02 7452.04 2.14 0.04 0.12 -0.63 0.84 -0.05 0.85 -0.32 -0.64 760.138
0.56 995.20 4054.02 7452.04 2.55 -0.17 0.52 -0.65 0.84 -0.06 0.84 -0.32 -0.65 760.56
0.80 995.18 4054.02 7452.04 2.47 0.08 0.42 -0.64 0.82 -0.06 0.85 -0.32 -0.65 761.158
0.97 995.16 4054.02 7452.04 2.36 0.84 0.45 -0.63 0.84 -0.06 0.85 -0.31 -0.64 761.562
0.47 995.21 4054.02 7452.04 2.01 0.83 0.45 -0.62 0.81 -0.06 0.84 -0.32 -0.65 762.141
0.40 995.22 4054.02 7452.04 2.43 0.31 0.64 -0.62 0.84 -0.07 0.84 -0.31 -0.65 762.563
0.04 995.26 4054.02 7452.04 2.32 -0.20 0.44 -0.62 0.81 -0.06 0.85 -0.32 -0.65 763.145
0.87 995.17 4054.02 7452.04 2.63 -0.25 0.58 -0.62 0.81 -0.07 0.85 -0.32 -0.65 763.567
0.42 995.22 4054.02 7452.04 2.60 0.41 0.47 -0.63 0.79 -0.07 0.84 -0.31 -0.65 764.165
1.27 995.12 4054.02 7452.04 2.29 -10.82 1.04 -0.57 0.90 -0.03 0.84 -0.32 -0.65 764.569
0.36 995.23 4054.02 7452.04 3.75 -9.33 -2.59 -0.75 0.76 -0.05 0.83 -0.31 -0.63 765.165
0.92 995.16 4054.02 7452.04 5.69 32.26 -21.48 -0.58 0.87 -0.12 0.91 -0.35 -0.70 765.573
0.92 995.16 4054.02 7452.04 -4.98 13.63 -11.43 -0.13 0.93 0.04 1.09 -0.34 -0.80 766.137
0.88 995.17 4054.02 7452.04 19.34 -2.14 -14.84 -0.07 0.96 -0.0 1.14 -0.34 -0.82 766.575
1.06 995.14 4054.02 7452.04 -2.84 -0.03 -6.84 -0.05 0.96 0.06 1.16 -0.32 -0.82 767.134
0.99 995.15 4054.02 7452.04 -1.03 3.07 2.16 -0.09 0.96 -0.02 1.16 -0.33 -0.82 767.575
0.90 995.16 4054.02 7452.04 -1.71 0.69 -10.30 -0.11 1.01 0.02 1.14 -0.35 -0.81 768.132
0.93 995.16 4054.02 7452.04 34.52 -34.60 -9.18 -0.34 1.13 0.05 1.11 -0.30 -0.82 768.58
0.54 995.21 4054.02 7452.04 4.76 -50.08 -31.63 -0.45 1.02 0.07 1.08 -0.30 -0.82 769.133
0.39 995.22 4054.02 7452.04 -8.00 -28.38 -30.16 -0.44 1.04 0.06 1.12 -0.26 -0.84 769.584
1.06 995.14 4054.02 7452.04 -1.46 -0.59 -21.03 -0.44 0.90 0.09 1.15 -0.22 -0.84 770.14
1.26 995.12 4054.02 7452.04 35.58 88.08 2.03 -0.00 1.04 0.08 1.24 -0.25 -0.84 770.582
1.74 995.06 4054.02 7452.04 42.34 86.93 -66.08 0.29 0.88 0.43 1.48 0.04 -0.68 771.139
2.25 995.00 4054.02 7452.04 24.30 37.60 -12.64 0.31 0.13 0.86 1.46 0.22 -0.36 771.585
1.30 995.12 4054.02 7452.04 -32.59 -25.56 4.65 0.37 0.03 1.04 1.43 0.21 -0.27 772.147
1.09 995.14 4054.02 7452.04 -32.47 57.60 -29.31 0.32 0.28 0.81 1.36 0.28 -0.31 772.587
1.32 995.11 4054.02 7452.04 -43.99 36.65 9.36 0.83 0.18 0.74 1.39 0.27 -0.35 773.165
1.26 995.12 4054.02 7452.04 -65.60 -31.16 -79.70 0.15 0.56 0.62 1.16 0.34 -0.54 773.591
1.35 995.11 4054.02 7452.04 5.49 41.58 -53.47 0.14 1.02 0.6 1.00 0.22 -0.71 774.147
1.10 995.14 4054.02 7452.04 -12.32 -7.35 -21.46 0.09 0.73 0.59 1.01 0.19 -0.74 774.591
1.00 995.15 4054.02 7452.04 0.25 4.93 -17.26 0.07 1.00 0.49 0.98 0.15 -0.76 775.142
0.91 995.16 4054.02 7452.04 -17.82 16.74 -10.56 0.08 0.96 0.62 1.00 0.13 -0.77 775.595
1.27 995.12 4054.02 7452.04 -4.46 -53.31 -11.11 -0.14 0.38 0.96 0.98 0.12 -0.77 776.16
1.51 995.09 4054.02 7452.04 2.65 8.72 -3.74 -0.07 0.73 0.61 0.98 0.11 -0.77 776.593
1.38 995.11 4054.02 7452.04 11.78 0.96 -9.93 0.00 0.74 0.47 1.02 0.06 -0.80 777.154
1.66 995.07 4054.02 7452.04 99.95 27.67 -23.15 0.08 0.58 0.44 0.96 0.16 -0.73 777.597
1.32 995.11 4054.02 7452.04 -15.02 12.41 -17.45 -0.04 0.82 0.67 0.91 0.16 -0.71 778.188
1.17 995.13 4054.02 7452.04 -17.15 22.46 12.63 -0.15 0.78 0.63 0.87 0.11 -0.72 778.6
1.64 995.08 4054.02 7452.04 -11.89 5.76 -7.88 -0.22 0.88 1.2 0.92 0.12 -0.74 779.188
1.44 995.10 4054.02 7452.04 13.09 -27.43 9.74 0.36 -0.79 0.62 0.93 0.05 -0.77 779.601
1.46 995.10 4054.02 7452.04 47.59 14.17 -1.84 -0.14 0.61 0.68 0.94 0.11 -0.75 780.168
1.62 995.08 4054.02 7452.04 0.82 -3.54 -28.69 -0.08 0.57 0.62 0.97 0.08 -0.77 780.603
1.01 995.15 4054.02 7452.04 9.75 12.55 8.57 -0.08 0.67 0.35 0.92 0.05 -0.77 781.204
0.80 995.18 4054.02 7452.04 11.80 35.68 -3.52 -0.06 0.68 0.6 0.95 0.06 -0.78 781.605
1.38 995.11 4054.02 7452.04 -36.27 -48.09 3.84 -0.82 0.11 1.17 0.90 0.07 -0.75 782.199
1.48 995.10 4054.02 7452.04 -18.06 -0.55 17.82 -0.05 1.02 0.53 0.96 0.08 -0.77 782.608
1.52 995.09 4054.02 7452.04 -37.97 -26.50 40.41 0.13 1.13 1.01 0.94 0.14 -0.74 783.208
1.23 995.12 4054.02 7452.04 -16.97 -0.60 5.83 -0.07 0.89 0.98 0.95 0.10 -0.76 783.609
1.67 995.07 4054.02 7452.04 20.34 -2.52 5.99 -0.11 0.92 0.56 0.95 0.09 -0.76 784.192
1.21 995.13 4054.02 7452.04 21.30 10.34 -13.13 -0.15 0.70 0.63 0.96 0.09 -0.77 784.612
1.24 995.12 4054.02 7452.04 13.32 -12.59 -10.50 -0.15 0.72 0.65 0.96 0.06 -0.79 785.193
1.15 995.13 4054.02 7452.05 24.07 17.99 -1.03 -0.02 0.70 0.38 0.95 0.05 -0.79 785.613
1.09 995.14 4054.02 7452.05 0.98 22.78 -21.34 0.05 1.07 0.58 0.98 0.06 -0.80 786.164
1.18 995.13 4054.02 7452.05 6.62 2.51 -7.70 -0.25 0.80 0.42 0.95 -0.01 -0.79 786.614
1.59 995.08 4054.02 7452.05 11.56 -7.19 -0.73 -0.10 0.67 0.57 0.98 0.03 -0.81 787.188
1.34 995.11 4054.02 7452.05 -53.17 -26.70 -4.94 -0.44 1.75 0.45 0.91 0.04 -0.76 787.619
1.62 995.08 4054.02 7452.05 -1.87 28.86 18.29 0.08 1.17 0.75 0.97 0.05 -0.80 788.174
1.64 995.08 4054.02 7452.05 1.24 -38.66 -18.64 0.05 1.20 0.7 0.92 0.02 -0.79 788.619
1.26 995.12 4054.02 7452.05 25.72 14.40 0.33 -0.77 1.26 0.38 0.89 0.01 -0.77 789.166
1.78 995.06 4054.02 7452.05 7.01 -30.42 -31.09 -0.26 0.68 0.3 0.91 0.01 -0.77 789.622
0.95 995.16 4054.02 7452.05 15.10 -8.94 3.83 -0.36 0.84 0.45 0.88 -0.02 -0.76 790.178
1.64 995.08 4054.02 7452.05 12.83 2.17 -1.62 -0.24 0.81 0.51 0.90 0.01 -0.78 790.622
1.45 995.10 4054.02 7452.05 4.45 11.06 22.88 -0.26 0.45 0.54 0.86 0.05 -0.75 791.177
1.55 995.09 4054.02 7452.05 -26.33 18.24 -4.57 0.28 0.74 0.36 0.88 0.00 -0.76 791.636
1.43 995.10 4054.02 7452.05 -20.77 -22.81 1.32 -0.30 0.81 0.19 0.85 -0.01 -0.75 792.185
1.08 995.14 4054.02 7452.05 -18.92 26.28 3.01 -0.15 0.95 0.63 0.89 0.05 -0.76 792.638
1.43 995.10 4054.02 7452.05 5.09 -11.18 17.12 -0.39 0.89 0.95 0.87 0.06 -0.74 793.184
1.32 995.11 4054.02 7452.05 10.61 14.77 3.07 -0.38 0.85 0.82 0.89 0.07 -0.75 793.64
1.24 995.12 4054.02 7452.05 37.73 -3.40 -3.07 -0.05 0.61 0.56 0.88 0.07 -0.75 794.202
1.44 995.10 4054.02 7452.05 8.75 10.40 1.46 -0.39 0.83 0.57 0.87 0.06 -0.75 794.641
1.70 995.07 4054.02 7452.06 0.45 -1.91 -11.31 -0.26 0.74 0.62 0.91 0.04 -0.77 795.188
1.92 995.04 4054.02 7452.06 -19.00 -8.19 -7.74 -0.03 0.48 0.57 0.84 0.01 -0.73 795.646
1.42 995.10 4054.02 7452.06 16.40 14.83 20.64 -0.36 0.86 0.66 0.86 0.02 -0.75 796.2
2.13 995.02 4054.02 7452.06 -37.90 -15.70 -29.78 -0.31 0.25 0.48 0.89 -0.01 -0.77 796.662
1.67 995.07 4054.02 7452.06 11.01 0.04 38.46 -0.22 0.79 0.2 0.90 -0.02 -0.78 797.196
1.60 995.08 4054.02 7452.06 -8.99 27.09 -12.45 -0.31 0.87 0.55 0.88 -0.03 -0.78 797.663
1.84 995.05 4054.01 7452.06 22.99 -4.11 1.10 -0.39 1.20 0.63 0.86 -0.04 -0.76 798.197
0.80 995.18 4054.01 7452.06 73.01 88.44 43.01 -0.04 0.71 1.6 0.97 0.15 -0.74 798.662
1.68 995.07 4054.01 7452.06 -19.32 -49.32 45.47 0.03 0.68 0.72 0.93 0.16 -0.72 799.223
1.78 995.06 4054.01 7452.06 -17.78 -7.97 0.56 -0.07 0.81 0.5 0.93 0.16 -0.72 799.665
1.47 995.10 4054.01 7452.06 -4.14 7.18 13.88 -0.02 1.05 0.39 0.94 0.09 -0.77 800.222
1.78 995.06 4054.01 7452.06 0.60 -26.28 27.06 -0.03 0.79 0.5 0.92 0.15 -0.73 800.666
1.37 995.11 4054.01 7452.06 -4.91 -13.05 10.18 -0.08 0.97 0.44 0.92 0.17 -0.75 801.189
1.08 995.14 4054.01 7452.06 -22.74 -32.70 11.30 -0.29 0.97 0.33 0.89 0.14 -0.71 801.671
1.32 995.11 4054.01 7452.06 16.45 -12.45 17.49 -0.15 0.85 0.51 0.92 0.23 -0.65 802.208
2.10 995.02 4054.01 7452.06 27.45 15.43 -2.91 -0.15 0.78 0.67 0.94 0.27 -0.63 802.67
1.54 995.09 4054.01 7452.06 -33.34 -17.00 18.03 -0.28 0.85 0.48 0.95 0.27 -0.62 803.218
2.10 995.02 4054.01 7452.06 -9.06 -5.28 5.59 -0.28 0.86 0.46 0.94 0.24 -0.66 803.672
1.88 995.05 4054.01 7452.06 12.61 16.63 -6.40 -0.25 0.83 0.43 0.94 0.24 -0.66 804.235
1.25 995.12 4054.01 7452.06 -0.54 10.97 -31.56 -0.20 0.89 0.45 0.94 0.22 -0.68 804.675
1.57 995.08 4054.01 7452.06 10.52 30.20 -30.60 -0.20 0.87 0.5 0.92 0.16 -0.70 805.237
1.20 995.13 4054.01 7452.06 1.14 7.65 -26.11 0.05 0.94 0.39 0.92 0.11 -0.74 805.675
1.06 995.14 4054.01 7452.06 15.80 19.35 -16.13 -0.13 0.85 0.41 0.91 0.09 -0.74 806.233
1.51 995.09 4054.01 7452.06 -20.98 0.46 -17.99 0.11 1.11 0.07 0.93 0.04 -0.78 806.691
1.84 995.05 4054.01 7452.06 -33.24 -38.01 13.95 -0.01 1.04 0.61 0.93 0.08 -0.76 807.203
1.36 995.11 4054.01 7452.06 -7.73 6.78 15.78 -0.13 0.91 0.6 0.92 0.07 -0.77 807.692
1.40 995.10 4054.01 7452.06 28.68 -14.47 -4.46 0.01 0.58 0.52 0.94 0.11 -0.76 808.248
1.35 995.11 4054.01 7452.06 3.57 6.22 -10.60 -0.01 0.74 0.33 0.92 0.10 -0.76 808.706
1.59 995.08 4054.01 7452.06 37.00 42.84 -38.18 -0.05 0.80 0.46 0.94 0.06 -0.78 809.211
1.42 995.10 4054.01 7452.06 -25.99 -37.45 -13.58 -0.23 0.75 0.5 0.90 0.06 -0.75 809.711
2.18 995.01 4054.01 7452.06 -9.40 33.95 4.81 -0.04 1.16 0.34 0.94 0.04 -0.78 810.23
1.68 995.07 4054.01 7452.06 -13.65 -28.95 22.78 0.12 1.01 1.01 0.94 0.12 -0.75 810.712
1.22 995.13 4054.01 7452.06 7.89 30.79 -2.10 -0.14 0.82 0.59 0.92 0.06 -0.76 811.21
1.85 995.05 4054.01 7452.06 1.07 -25.85 -7.98 -0.02 0.59 0.42 0.95 0.06 -0.78 811.712
1.59 995.08 4054.01 7452.06 -1.00 11.22 20.53 -0.10 0.80 0.26 0.90 0.03 -0.77 812.213
1.50 995.09 4054.01 7452.06 36.68 47.44 -34.69 -0.05 0.78 0.48 0.96 0.04 -0.79 812.716
1.69 995.07 4054.01 7452.06 -50.21 -64.03 -4.98 -0.18 0.81 0.29 0.95 0.03 -0.78 813.218
1.69 995.07 4054.01 7452.06 -8.96 21.15 1.05 0.09 1.26 0.3 0.97 -0.01 -0.81 813.715
1.43 995.10 4054.01 7452.07 -24.13 -40.36 31.72 -0.09 1.14 0.7 0.94 -0.01 -0.79 814.229
1.29 995.12 4054.01 7452.07 -4.35 -2.65 11.03 -0.01 1.08 0.54 0.97 -0.01 -0.81 814.721
2.03 995.03 4054.01 7452.07 24.03 -16.87 -3.30 -0.04 0.75 0.47 0.97 0.03 -0.81 815.251
2.16 995.01 4054.01 7452.07 16.51 2.03 -5.48 -0.10 0.75 0.34 0.95 -0.02 -0.80 815.721
1.42 995.10 4054.01 7452.07 7.49 -19.83 -11.46 -0.01 0.75 0.41 0.97 -0.00 -0.80 816.237
1.45 995.10 4054.01 7452.07 -1.01 4.32 -8.24 -0.35 0.83 0.32 0.86 -0.03 -0.75 816.724
1.59 995.08 4054.01 7452.07 -19.76 -27.44 -33.17 -0.12 1.17 0.06 0.90 -0.04 -0.77 817.229
1.89 995.05 4054.01 7452.07 -20.96 2.86 39.06 -0.26 1.23 0.62 0.89 -0.03 -0.77 817.727
1.20 995.13 4054.01 7452.07 -26.06 -26.14 19.63 -0.12 1.10 0.57 0.91 0.02 -0.78 818.23
1.74 995.06 4054.01 7452.07 20.44 -17.12 -15.72 -0.12 0.56 0.56 0.92 0.05 -0.76 818.732
1.77 995.06 4054.01 7452.07 -0.18 0.42 2.48 -0.11 0.72 0.32 0.91 0.02 -0.77 819.228
1.29 995.12 4054.01 7452.07 33.26 12.87 -31.47 -0.08 0.99 0.31 0.94 -0.07 -0.80 819.733
1.46 995.10 4054.01 7452.07 -6.75 -19.56 -4.18 -0.21 0.81 0.44 0.91 -0.02 -0.78 820.268
1.46 995.10 4054.01 7452.07 -14.39 32.73 -3.54 0.16 1.27 0.14 0.95 -0.01 -0.80 820.734
1.63 995.08 4054.01 7452.07 -27.63 -36.44 32.32 -0.17 0.96 0.99 0.92 0.04 -0.78 821.267
1.82 995.05 4054.01 7452.07 1.46 17.07 4.16 -0.11 0.98 0.53 0.91 -0.00 -0.78 821.734
1.79 995.06 4054.01 7452.07 47.76 2.42 -12.18 -0.08 0.55 0.5 0.94 0.05 -0.78 822.237
1.75 995.06 4054.01 7452.07 14.82 9.51 -11.16 -0.10 0.75 0.34 0.92 -0.00 -0.78 822.738
1.42 995.10 4054.01 7452.07 34.72 -15.14 -27.26 -0.16 0.71 0.38 0.94 0.00 -0.79 823.27
1.70 995.07 4054.01 7452.07 -26.60 1.93 0.46 -0.11 0.90 0.55 0.90 0.03 -0.76 823.738
1.12 995.14 4054.01 7452.07 -40.97 -29.96 -22.25 0.01 1.01 0.14 0.93 -0.02 -0.79 824.279
1.68 995.07 4054.01 7452.07 -0.17 -16.16 34.44 -0.20 0.97 0.86 0.91 0.04 -0.77 824.742
1.52 995.09 4054.01 7452.07 -0.81 4.50 4.36 -0.20 0.93 0.67 0.93 0.05 -0.77 825.28
1.43 995.10 4054.01 7452.07 56.17 -7.52 -24.85 -0.15 0.57 0.57 0.93 0.09 -0.74 825.744
1.78 995.06 4054.01 7452.08 7.47 19.94 22.71 -0.07 0.53 0.68 0.94 0.18 -0.70 826.269
1.95 995.04 4054.01 7452.08 -16.69 3.37 16.04 0.11 0.58 0.79 1.01 0.21 -0.70 826.744
2.22 995.01 4054.01 7452.08 -25.24 -21.59 25.23 0.12 0.81 0.69 1.00 0.12 -0.76 827.271
1.71 995.07 4054.01 7452.08 9.12 4.62 0.11 0.15 0.75 0.67 0.99 0.15 -0.74 827.743
1.91 995.04 4054.01 7452.08 -36.24 9.74 -25.94 -0.11 0.78 0.61 0.96 0.09 -0.77 828.25
2.27 995.00 4054.01 7452.08 25.05 24.83 -37.95 0.03 1.00 0.43 1.04 -0.03 -0.82 828.75
1.76 995.06 4054.01 7452.08 -6.84 9.64 2.55 0.06 0.83 0.57 1.10 -0.01 -0.83 829.264
2.40 994.99 4054.01 7452.08 20.68 91.36 62.55 0.37 0.65 0.4 1.17 -0.02 -0.83 829.751
2.06 995.03 4054.01 7452.08 14.03 -94.27 38.05 0.36 1.07 0.01 1.15 -0.15 -0.85 830.254
1.59 995.08 4054.01 7452.08 -16.70 -73.48 -3.15 -0.21 1.02 -0.08 0.89 -0.17 -0.76 830.755
1.20 995.13 4054.01 7452.08 7.31 -43.22 -15.15 -0.60 0.88 -0.17 0.80 -0.12 -0.62 831.255
0.95 995.16 4054.01 7452.08 -4.81 -16.12 -11.53 -0.81 0.59 -0.06 0.73 -0.11 -0.49 831.757
1.30 995.12 4054.01 7452.08 -0.23 -48.97 4.36 -1.02 0.26 -0.08 0.72 -0.13 -0.33 832.257
1.22 995.13 4054.01 7452.08 4.62 24.89 0.14 -0.97 0.25 -0.08 0.72 -0.13 -0.33 832.755
0.91 995.16 4054.01 7452.08 1.49 -12.78 0.81 -0.98 0.28 -0.09 0.72 -0.13 -0.34 833.257
1.43 995.10 4054.01 7452.08 2.98 3.88 0.41 -0.99 0.26 -0.09 0.72 -0.13 -0.33 833.756
1.08 995.14 4054.01 7452.08 2.36 0.14 0.60 -0.98 0.28 -0.09 0.72 -0.12 -0.33 834.257
1.03 995.15 4054.01 7452.08 2.41 -1.29 0.53 -0.99 0.27 -0.09 0.72 -0.12 -0.33 834.759
1.17 995.13 4054.01 7452.08 2.60 -1.10 0.44 -0.99 0.24 -0.09 0.72 -0.13 -0.32 835.26
1.11 995.14 4054.01 7452.08 2.58 0.82 0.23 -0.99 0.24 -0.09 0.72 -0.13 -0.32 835.761
1.59 995.08 4054.01 7452.08 2.15 -1.33 0.39 -0.99 0.25 -0.08 0.73 -0.13 -0.32 836.263
0.91 995.16 4054.01 7452.08 2.41 -0.07 0.43 -0.99 0.24 -0.09 0.73 -0.13 -0.33 836.764
1.08 995.14 4054.01 7452.08 2.50 0.70 0.62 -0.98 0.24 -0.09 0.72 -0.13 -0.32 837.264
1.08 995.14 4054.01 7452.08 2.56 1.25 0.60 -0.99 0.23 -0.09 0.73 -0.13 -0.33 837.766
1.56 995.09 4054.01 7452.08 2.79 1.69 0.55 -1.01 0.39 -0.08 0.72 -0.13 -0.32 838.266
1.85 995.05 4054.01 7452.08 2.66 1.78 0.37 -1.00 0.24 -0.08 0.72 -0.13 -0.32 838.767
1.35 995.11 4054.01 7452.08 2.43 0.59 0.50 -0.99 0.24 -0.09 0.72 -0.13 -0.33 839.268
1.46 995.10 4054.01 7452.08 2.38 0.15 0.64 -0.99 0.24 -0.08 0.72 -0.13 -0.32 839.77
0.62 995.20 4054.01 7452.08 2.42 -0.89 0.41 -0.99 0.24 -0.08 0.72 -0.13 -0.32 840.271
1.43 995.10 4054.01 7452.08 2.57 2.15 0.48 -1.00 0.25 -0.08 0.72 -0.13 -0.32 840.771
1.20 995.13 4054.01 7452.08 2.52 0.77 0.52 -0.97 0.24 -0.09 0.72 -0.13 -0.33 841.272
1.60 995.08 4054.01 7452.08 2.54 0.92 0.63 -1.00 0.25 -0.08 0.72 -0.13 -0.32 841.774
1.09 995.14 4054.01 7452.08 2.37 0.30 0.38 -0.99 0.24 -0.08 0.72 -0.13 -0.32 842.274
1.51 995.09 4054.01 7452.08 2.14 -0.17 0.27 -0.99 0.24 -0.09 0.72 -0.13 -0.32 842.776
1.91 995.04 4054.01 7452.08 2.58 0.46 0.57 -1.00 0.23 -0.1 0.72 -0.13 -0.33 843.276
1.33 995.11 4054.01 7452.08 2.54 0.13 0.45 -0.98 0.24 -0.09 0.72 -0.13 -0.32 843.778
1.61 995.08 4054.01 7452.08 2.38 0.11 0.47 -0.99 0.24 -0.09 0.72 -0.13 -0.32 844.278
0.86 995.17 4054.01 7452.08 2.38 0.26 0.55 -0.99 0.24 -0.09 0.72 -0.13 -0.33 844.779
0.82 995.17 4054.01 7452.08 2.56 0.60 0.44 -0.99 0.24 -0.09 0.72 -0.12 -0.33 845.28
1.40 995.10 4054.01 7452.08 2.56 0.72 0.25 -0.98 0.24 -0.09 0.72 -0.13 -0.33 845.782
1.66 995.07 4054.01 7452.08 2.74 -0.23 0.43 -0.99 0.24 -0.08 0.72 -0.13 -0.32 846.283
1.55 995.09 4054.01 7452.08 2.52 0.36 0.50 -0.97 0.24 -0.09 0.72 -0.13 -0.33 846.783
1.48 995.09 4054.01 7452.08 2.55 1.92 0.46 -1.00 0.24 -0.1 0.73 -0.12 -0.33 847.284
1.11 995.14 4054.01 7452.08 2.47 0.43 0.60 -1.00 0.24 -0.09 0.73 -0.13 -0.33 847.785
1.59 995.08 4054.01 7452.08 2.62 0.97 0.64 -0.99 0.24 -0.1 0.72 -0.13 -0.33 848.296
1.62 995.08 4054.01 7452.08 2.30 1.16 0.25 -0.99 0.23 -0.1 0.72 -0.13 -0.32 848.787
2.02 995.03 4054.01 7452.08 2.56 0.45 0.60 -0.99 0.24 -0.09 0.72 -0.13 -0.33 849.288
1.18 995.13 4054.01 7452.08 2.70 0.63 0.31 -0.99 0.24 -0.08 0.72 -0.13 -0.33 849.789
1.78 995.06 4054.01 7452.08 2.76 -0.08 0.45 -0.98 0.24 -0.08 0.72 -0.13 -0.33 850.292
1.09 995.14 4054.01 7452.08 2.58 0.49 0.49 -0.99 0.25 -0.09 0.72 -0.13 -0.32 850.791
1.65 995.08 4054.01 7452.08 2.57 0.81 0.25 -1.01 0.25 -0.1 0.72 -0.13 -0.32 851.292
1.45 995.10 4054.01 7452.08 2.40 0.69 0.45 -0.99 0.24 -0.09 0.72 -0.13 -0.33 851.793
1.23 995.12 4054.01 7452.08 2.81 1.25 0.37 -0.99 0.24 -0.09 0.72 -0.13 -0.33 852.294
1.31 995.11 4054.01 7452.08 2.19 -1.01 0.77 -0.99 0.24 -0.08 0.72 -0.13 -0.33 852.796
1.33 995.11 4054.01 7452.08 2.29 -0.60 0.37 -0.99 0.25 -0.09 0.72 -0.13 -0.32 853.298
1.21 995.13 4054.01 7452.08 2.49 -0.83 0.29 -0.99 0.24 -0.09 0.72 -0.13 -0.33 853.799
1.65 995.08 4054.01 7452.08 2.42 0.77 0.48 -0.98 0.25 -0.08 0.72 -0.13 -0.33 854.299
1.23 995.13 4054.01 7452.08 2.37 1.12 0.53 -1.00 0.24 -0.09 0.72 -0.13 -0.32 854.8
1.32 995.11 4054.01 7452.08 2.18 -0.74 0.43 -0.99 0.24 -0.08 0.72 -0.13 -0.32 855.303
1.23 995.13 4054.01 7452.08 2.48 -0.39 0.26 -1.00 0.24 -0.08 0.71 -0.13 -0.32 855.803
1.20 995.13 4054.01 7452.08 2.58 0.13 0.37 -0.98 0.24 -0.08 0.72 -0.13 -0.32 856.303
0.83 995.17 4054.01 7452.08 2.29 0.53 0.41 -1.00 0.24 -0.1 0.72 -0.13 -0.33 856.804
1.09 995.14 4054.01 7452.08 2.76 0.87 0.38 -0.99 0.24 -0.1 0.72 -0.13 -0.33 857.306
0.98 995.15 4054.01 7452.08 2.04 0.31 0.57 -0.99 0.24 -0.09 0.71 -0.13 -0.32 857.806
1.33 995.11 4054.01 7452.08 2.56 0.90 0.29 -0.98 0.24 -0.08 0.72 -0.13 -0.33 858.307
1.80 995.06 4054.01 7452.08 2.48 0.52 0.38 -0.97 0.24 -0.09 0.72 -0.13 -0.33 858.808
1.45 995.10 4054.01 7452.08 2.44 1.11 0.24 -0.99 0.24 -0.09 0.72 -0.13 -0.32 859.31
0.76 995.18 4054.01 7452.08 2.51 0.81 0.52 -0.99 0.24 -0.08 0.72 -0.13 -0.33 859.81
1.03 995.15 4054.01 7452.08 2.51 0.10 0.15 -0.97 0.23 -0.09 0.72 -0.13 -0.32 860.311
1.46 995.10 4054.01 7452.08 2.62 0.11 0.42 -1.00 0.25 -0.09 0.72 -0.13 -0.32 860.812
1.77 995.06 4054.01 7452.08 2.57 0.37 0.43 -0.99 0.24 -0.1 0.72 -0.12 -0.32 861.314
1.58 995.08 4054.01 7452.08 2.44 0.12 0.49 -0.99 0.24 -0.09 0.72 -0.13 -0.33 861.814
1.46 995.10 4054.01 7452.08 2.50 1.26 0.29 -0.99 0.24 -0.09 0.72 -0.13 -0.32 862.315
1.72 995.07 4054.01 7452.08 2.64 1.42 0.67 -0.99 0.24 -0.09 0.72 -0.13 -0.33 862.816
1.87 995.05 4054.01 7452.08 2.67 0.93 0.22 -0.99 0.24 -0.08 0.72 -0.13 -0.32 863.318
1.92 995.04 4054.01 7452.08 2.37 1.35 0.38 -0.99 0.24 -0.09 0.72 -0.12 -0.32 863.818
1.34 995.11 4054.01 7452.08 2.39 0.50 0.27 -0.99 0.24 -0.09 0.71 -0.13 -0.32 864.319
1.05 995.15 4054.01 7452.08 2.42 -0.14 0.52 -0.99 0.24 -0.09 0.72 -0.13 -0.32 864.821
1.46 995.10 4054.01 7452.08 2.23 0.25 0.53 -0.99 0.24 -0.08 0.72 -0.13 -0.33 865.321
1.09 995.14 4054.01 7452.08 2.42 0.09 0.38 -0.99 0.24 -0.09 0.71 -0.13 -0.33 865.822
1.77 995.06 4054.01 7452.08 2.63 -0.24 0.55 -0.99 0.24 -0.09 0.72 -0.13 -0.33 866.324
1.29 995.12 4054.01 7452.08 2.33 1.32 0.28 -0.99 0.24 -0.08 0.72 -0.13 -0.32 866.824