alt barom Gx Gy Gz Ax Ay Az Mx My Mz t GPS_La GPS_Lo
1.62 994.70 2.35 0.20 0.45 0.01 0.01 1.01 0.95 0.36 -0.30 935.457 4053.99 7452.04
1.73 994.69 2.72 0.26 0.58 0.01 0.01 1.0 0.95 0.37 -0.30 935.958 4053.99 7452.04
1.83 994.67 2.54 0.21 0.52 0.01 0.01 1.0 0.95 0.37 -0.29 936.459 4053.99 7452.04
1.99 994.66 2.55 0.31 0.38 0.01 0.01 1.0 0.95 0.37 -0.30 936.961 4053.99 7452.04
1.56 994.71 2.39 0.32 0.38 0.01 0.02 1.0 0.95 0.37 -0.30 937.461 4053.99 7452.04
1.34 994.73 2.69 0.25 0.38 0.01 0.01 1.0 0.95 0.37 -0.30 937.962 4053.99 7452.04
1.34 994.73 2.44 0.37 0.46 0.01 0.01 1.01 0.95 0.37 -0.30 938.463 4053.99 7452.04
1.61 994.70 2.45 0.29 0.31 0.01 0.02 1.01 0.95 0.37 -0.30 938.964 4053.99 7452.04
1.97 994.66 2.30 0.60 0.26 0.01 0.01 1.01 0.95 0.37 -0.30 939.465 4053.99 7452.04
1.68 994.69 2.47 0.34 0.21 0.01 0.02 1.0 0.95 0.37 -0.30 939.966 4053.99 7452.04
1.77 994.68 2.42 0.31 0.24 0.01 0.01 1.0 0.95 0.37 -0.29 940.467 4053.99 7452.04
1.74 994.69 2.49 0.25 0.45 0.01 0.02 1.0 0.95 0.37 -0.30 940.968 4053.99 7452.04
1.87 994.67 2.55 0.24 0.37 0.01 0.01 1.01 0.95 0.37 -0.29 941.469 4053.99 7452.04
3.42 994.49 6.06 -46.94 0.31 -0.13 0.03 2.0 1.04 0.27 -0.28 941.973 4053.99 7452.04
13.69 993.28 -3.43 -17.10 -34.08 0.02 -0.02 2.0 1.00 0.26 -0.30 942.478 4053.99 7452.04
32.61 991.05 -12.25 -34.26 19.18 0.00 -0.04 2.0 0.93 0.32 -0.34 942.98 4053.99 7452.04
51.34 988.85 11.86 -28.31 -8.73 0.01 0.01 1.53 1.01 0.35 -0.25 943.478 4053.99 7452.04
71.96 986.43 -1.86 -55.26 3.11 -0.07 -0.02 0.23 1.05 0.33 -0.21 943.98 4053.99 7452.04
84.14 985.01 3.12 -61.29 -8.64 -0.20 0.39 -0.03 1.18 0.33 -0.23 944.479 4053.99 7452.04
98.87 983.29 6.45 -65.54 -5.18 -0.01 0.01 -0.03 1.24 0.32 -0.27 944.98 4053.99 7452.04
110.06 981.98 -0.27 -68.70 0.83 -0.02 0.02 -0.02 1.30 0.32 -0.37 945.482 4053.99 7452.04
118.92 980.95 6.05 -58.78 1.72 -0.01 0.00 0.0 1.30 0.32 -0.47 945.983 4053.99 7452.04
125.97 980.12 5.62 -52.43 10.15 -0.01 0.00 0.0 1.27 0.32 -0.55 946.486 4053.99 7452.04
130.18 979.63 -0.33 -48.83 15.80 -0.02 0.01 0.01 1.24 0.30 -0.60 946.989 4053.99 7452.04
132.49 979.36 -10.09 -54.48 18.57 -0.01 0.02 0.01 1.18 0.27 -0.67 947.49 4053.99 7452.04
134.02 979.19 7.56 -83.23 -10.38 -0.23 0.29 -0.16 1.05 0.23 -0.72 947.989 4053.99 7452.04
135.93 978.96 -69.29 -41.17 -5.84 -0.00 0.12 -0.27 0.86 0.20 -0.67 948.492 4053.99 7452.05
134.43 979.14 -51.81 -13.00 -33.12 0.02 0.07 -0.03 0.78 -0.06 -0.71 948.994
130.64 979.58 10.13 80.77 -2.99 -0.04 0.21 -0.1 0.89 -0.20 -0.78 949.492
104.92 982.58 -100.43 152.56 -2.15 -0.52 0.05 -1.94 1.30 -0.10 -0.83 949.996
94.91 983.75 87.87 1.68 -96.50 0.53 0.27 0.08 1.55 -0.28 -0.64 950.494
117.01 981.17 -30.97 -256.47 89.26 0.11 0.57 0.23 1.02 0.20 -0.74 950.998
86.31 984.75 -236.80 203.26 100.38 -0.23 0.52 -0.27 1.05 -0.40 -0.75 951.499
82.80 985.16 -4.67 286.68 30.00 0.42 0.70 -0.51 1.20 -0.58 -0.57 951.996 4053.99 7452.05
60.03 987.83 86.28 73.55 19.28 0.69 -0.37 -0.39 1.34 -0.60 -0.43 952.498 4053.99 7452.05
48.27 989.21 11.08 -120.15 -12.17 0.76 0.38 -0.2 1.20 -0.55 -0.62 953.0 4053.99 7452.05
54.84 988.44 83.97 -67.04 -274.53 0.05 1.16 -0.31 1.24 -0.47 -0.73 953.501 4054.00 7452.05
31.27 991.21 -166.08 35.29 -107.52 -0.30 2.00 -0.14 1.38 -0.29 -0.78 954.004 4054.00 7452.05
19.28 992.62 59.07 -286.72 -152.79 -0.09 -0.78 -0.11 1.22 -0.34 -0.81 954.507 4054.00 7452.05
2.82 994.56 -208.15 286.68 -286.72 0.05 1.33 -2.0 1.14 -0.59 -0.53 955.005 4054.00 7452.05
0.69 994.81 -21.57 28.31 -3.17 0.71 0.08 -0.44 1.59 -0.26 -0.57 955.502 4054.00 7452.06
1.18 994.75 4.08 -0.98 1.65 0.82 -0.12 -0.44 1.60 -0.26 -0.55 956.001 4054.00 7452.06
0.82 994.79 3.86 0.81 -8.85 0.91 0.34 -0.39 1.57 -0.23 -0.61 956.502 4054.01 7452.06
0.88 994.79 -0.31 3.06 0.29 0.90 0.09 -0.39 1.58 -0.23 -0.59 957.002 4054.01 7452.06
0.95 994.78 2.36 0.22 0.51 0.89 0.08 -0.39 1.59 -0.23 -0.59 957.502 4054.01 7452.06
1.59 994.70 2.40 0.40 -0.01 0.89 0.08 -0.39 1.59 -0.23 -0.59 958.004 4054.01 7452.06
0.92 994.78 2.04 0.51 0.24 0.89 0.08 -0.39 1.59 -0.22 -0.59 958.504 4054.01 7452.06
1.39 994.73 1.99 0.56 0.45 0.90 0.08 -0.39 1.59 -0.23 -0.59 959.005 4054.01 7452.06
1.07 994.76 2.49 0.47 0.27 0.89 0.08 -0.39 1.59 -0.23 -0.58 959.506 4054.02 7452.06
1.11 994.76 2.26 0.08 0.04 0.90 0.07 -0.39 1.59 -0.23 -0.58 960.007 4054.02 7452.06
1.44 994.72 2.39 0.30 0.31 0.89 0.07 -0.4 1.58 -0.23 -0.58 960.508 4054.02 7452.06
1.49 994.72 2.34 0.26 0.26 0.90 0.07 -0.39 1.59 -0.23 -0.57 961.009 4054.02 7452.06
0.59 994.82 2.55 0.31 0.29 0.91 0.07 -0.38 1.59 -0.23 -0.58 961.51 4054.02 7452.06
0.89 994.79 2.22 0.21 0.18 0.90 0.07 -0.38 1.59 -0.23 -0.58 962.011 4054.02 7452.06
1.01 994.77 2.58 0.26 0.18 0.89 0.07 -0.38 1.59 -0.23 -0.58 962.512 4054.02 7452.06
1.01 994.77 2.59 0.38 0.22 0.90 0.07 -0.39 1.59 -0.23 -0.58 963.013 4054.02 7452.06
0.63 994.82 2.44 0.17 0.32 0.90 0.07 -0.38 1.59 -0.23 -0.59 963.514 4054.02 7452.06
1.08 994.76 2.40 0.26 0.43 0.89 0.07 -0.38 1.59 -0.23 -0.58 964.016 4054.02 7452.06
0.62 994.82 2.36 0.12 0.26 0.90 0.07 -0.38 1.59 -0.23 -0.58 964.517 4054.03 7452.06
0.84 994.79 2.43 0.19 0.39 0.89 0.07 -0.38 1.59 -0.23 -0.59 965.018 4054.03 7452.06
0.90 994.78 2.50 0.27 0.17 0.90 0.07 -0.38 1.59 -0.23 -0.59 965.519 4054.03 7452.06
1.00 994.77 2.41 0.16 0.08 0.91 0.08 -0.38 1.59 -0.22 -0.59 966.021 4054.03 7452.06
1.50 994.71 2.50 0.19 0.19 0.90 0.07 -0.38 1.60 -0.23 -0.58 966.521 4054.03 7452.06
1.09 994.76 2.38 0.39 0.42 0.90 0.07 -0.38 1.59 -0.23 -0.58 967.022 4054.03 7452.06
1.26 994.74 2.55 0.18 0.33 0.90 0.06 -0.37 1.59 -0.23 -0.59 967.523 4054.03 7452.06
0.49 994.83 2.45 0.25 0.22 0.91 0.07 -0.38 1.59 -0.23 -0.59 968.025 4054.03 7452.06
1.38 994.73 2.30 0.31 0.29 0.90 0.07 -0.38 1.59 -0.23 -0.59 968.525 4054.03 7452.06
1.12 994.76 2.55 0.23 0.34 0.90 0.07 -0.38 1.59 -0.23 -0.58 969.026 4054.03 7452.06
1.04 994.77 2.39 0.29 0.35 0.90 0.07 -0.38 1.59 -0.22 -0.58 969.527 4054.03 7452.06
1.06 994.77 2.53 0.15 0.15 0.89 0.07 -0.38 1.59 -0.23 -0.58 970.029 4054.03 7452.06
1.42 994.72 2.39 0.39 0.17 0.90 0.07 -0.38 1.59 -0.23 -0.58 970.529 4054.03 7452.06
0.97 994.78 2.24 0.39 0.31 0.90 0.08 -0.39 1.59 -0.23 -0.58 971.03 4054.03 7452.06
1.23 994.75 2.63 0.06 0.32 0.90 0.07 -0.38 1.59 -0.23 -0.58 971.531 4054.03 7452.06
0.71 994.81 2.50 0.34 0.31 0.91 0.07 -0.38 1.59 -0.23 -0.58 972.033 4054.03 7452.06
1.26 994.74 2.58 0.22 0.35 0.90 0.07 -0.38 1.59 -0.23 -0.58 972.533 4054.03 7452.06
1.52 994.71 2.42 0.38 0.33 0.91 0.07 -0.38 1.59 -0.23 -0.58 973.034 4054.03 7452.06
1.11 994.76 2.52 -0.03 0.44 0.90 0.07 -0.42 1.59 -0.23 -0.59 973.536 4054.03 7452.06
0.94 994.78 2.61 0.48 0.36 0.90 0.07 -0.38 1.59 -0.22 -0.58 974.036 4054.03 7452.06
0.71 994.81 2.56 0.38 0.03 0.90 0.07 -0.38 1.59 -0.23 -0.58 974.537 4054.03 7452.06
0.77 994.80 2.38 0.16 0.21 0.90 0.07 -0.38 1.59 -0.23 -0.58 975.038 4054.03 7452.06
0.53 994.83 2.37 0.16 0.25 0.90 0.07 -0.38 1.59 -0.23 -0.58 975.539 4054.03 7452.06
0.94 994.78 2.28 0.54 0.44 0.90 0.07 -0.38 1.60 -0.23 -0.58 976.04 4054.03 7452.06
1.03 994.77 2.75 0.49 0.38 0.90 0.07 -0.38 1.59 -0.22 -0.58 976.541 4054.02 7452.06
1.24 994.74 2.21 0.22 0.34 0.90 0.07 -0.38 1.59 -0.22 -0.58 977.042 4054.02 7452.06
0.70 994.81 2.46 0.16 0.27 0.90 0.07 -0.38 1.59 -0.23 -0.58 977.543 4054.02 7452.06
1.27 994.74 2.32 0.06 0.33 0.90 0.07 -0.38 1.59 -0.22 -0.58 978.044 4054.02 7452.06
0.81 994.80 2.22 0.28 0.47 0.90 0.07 -0.38 1.59 -0.22 -0.57 978.545 4054.02 7452.06
0.60 994.82 2.38 0.29 0.67 0.88 0.06 -0.38 1.59 -0.23 -0.58 979.046 4054.02 7452.06
1.17 994.75 2.53 0.72 0.45 0.90 0.08 -0.38 1.59 -0.23 -0.57 979.547 4054.02 7452.06
1.20 994.75 2.43 0.17 0.11 0.90 0.07 -0.38 1.59 -0.22 -0.57 980.048 4054.02 7452.06
1.08 994.76 2.07 0.33 0.42 0.90 0.07 -0.38 1.59 -0.23 -0.58 980.549 4054.02 7452.06
1.34 994.73 2.54 0.25 0.30 0.90 0.07 -0.38 1.59 -0.23 -0.58 981.05 4054.02 7452.06
0.47 994.84 2.52 0.28 0.38 0.90 0.07 -0.38 1.59 -0.23 -0.58 981.552 4054.02 7452.06
1.11 994.76 2.35 0.20 0.28 0.90 0.07 -0.38 1.59 -0.23 -0.59 982.053 4054.02 7452.06
1.10 994.76 2.55 0.34 0.55 0.90 0.06 -0.38 1.59 -0.23 -0.58 982.554 4054.02 7452.06
1.00 994.77 2.42 0.32 -0.37 0.83 -0.04 -0.41 1.59 -0.22 -0.58 983.057 4054.02 7452.06
1.09 994.76 2.31 0.58 0.76 0.90 0.07 -0.38 1.59 -0.23 -0.59 983.557 4054.02 7452.06
0.62 994.82 2.52 0.22 0.02 0.89 0.07 -0.38 1.59 -0.23 -0.58 984.057 4054.02 7452.06
1.13 994.76 2.51 0.38 -0.47 0.92 0.08 -0.38 1.60 -0.23 -0.59 984.559 4054.02 7452.06
0.90 994.78 2.47 0.65 0.62 0.89 0.07 -0.38 1.59 -0.22 -0.58 985.059 4054.02 7452.06
0.90 994.78 2.54 0.31 0.36 0.90 0.07 -0.38 1.59 -0.22 -0.58 985.561 4054.02 7452.06
1.19 994.75 2.44 0.41 0.38 0.89 0.07 -0.38 1.59 -0.22 -0.59 986.084 4054.02 7452.06
1.39 994.73 2.58 0.44 0.52 0.89 0.07 -0.38 1.59 -0.23 -0.58 986.562 4054.02 7452.06
0.86 994.79 2.28 0.15 0.51 0.90 0.07 -0.38 1.59 -0.23 -0.59 987.085 4054.02 7452.06
0.81 994.80 2.29 0.25 0.32 0.91 0.07 -0.38 1.59 -0.22 -0.58 987.565 4054.02 7452.06
0.43 994.84 2.30 0.38 0.08 0.90 0.07 -0.38 1.60 -0.22 -0.58 988.093 4054.02 7452.06
1.15 994.75 2.55 0.17 0.34 0.90 0.07 -0.38 1.60 -0.22 -0.59 988.566 4054.02 7452.06
0.22 994.86 2.65 0.50 0.40 0.90 0.07 -0.37 1.59 -0.22 -0.58 989.067 4054.02 7452.06
1.69 994.69 2.21 0.45 0.20 0.90 0.07 -0.38 1.59 -0.23 -0.58 989.569 4054.02 7452.06
1.63 994.70 2.71 0.13 0.17 0.90 0.07 -0.38 1.59 -0.22 -0.57 990.069 4054.02 7452.06
1.01 994.77 2.46 0.33 0.38 0.90 0.07 -0.38 1.59 -0.23 -0.58 990.57 4054.02 7452.06
0.89 994.79 2.41 0.36 0.41 0.90 0.07 -0.38 1.59 -0.23 -0.58 991.071 4054.02 7452.06
0.75 994.80 2.61 0.18 0.21 0.91 0.06 -0.37 1.59 -0.23 -0.59 991.572 4054.02 7452.06
0.72 994.81 2.49 0.29 0.15 0.90 0.06 -0.38 1.59 -0.23 -0.58 992.095 4054.02 7452.06
1.35 994.73 2.58 0.32 0.45 0.91 0.07 -0.38 1.59 -0.23 -0.59 992.574 4054.02 7452.06
1.18 994.75 2.09 0.26 0.31 0.90 0.07 -0.38 1.59 -0.23 -0.58 993.084 4054.02 7452.06
1.04 994.77 2.28 0.25 0.28 0.90 0.07 -0.38 1.59 -0.23 -0.59 993.576 4054.02 7452.06
1.15 994.76 2.32 0.38 0.33 0.90 0.06 -0.38 1.59 -0.23 -0.58 994.077 4054.02 7452.06
0.92 994.78 2.29 0.35 0.33 0.90 0.07 -0.38 1.59 -0.23 -0.58 994.578 4054.02 7452.06
0.53 994.83 2.51 0.05 0.47 0.90 0.07 -0.38 1.59 -0.22 -0.58 995.1 4054.02 7452.06
1.14 994.76 2.14 0.25 0.40 0.90 0.07 -0.38 1.59 -0.23 -0.57 995.58 4054.02 7452.06
0.92 994.78 2.31 0.16 0.32 0.90 0.07 -0.38 1.59 -0.23 -0.58 996.081 4054.02 7452.06
1.06 994.77 2.53 0.22 0.45 0.90 0.07 -0.38 1.59 -0.22 -0.58 996.582 4054.02 7452.06
1.26 994.74 2.47 0.33 0.25 0.90 0.07 -0.38 1.59 -0.23 -0.58 997.083 4054.02 7452.06
0.85 994.79 2.58 0.29 0.38 0.90 0.06 -0.38 1.59 -0.23 -0.58 997.584 4054.02 7452.06
1.48 994.72 2.38 0.34 0.52 0.90 0.07 -0.38 1.59 -0.22 -0.58 998.109 4054.02 7452.06
1.20 994.75 -25.92 48.28 -11.92 -0.59 2.00 -1.15 1.59 -0.22 -0.58 998.592 4054.02 7452.06
1.47 994.72 -10.11 0.50 3.95 0.89 0.26 -0.41 1.59 -0.23 -0.59 999.09 4054.02 7452.06
1.06 994.77 -0.82 2.50 4.47 0.89 0.10 -0.42 1.59 -0.25 -0.58 999.59 4054.02 7452.06
0.96 994.78 -2.17 5.05 11.21 0.86 0.11 -0.37 1.59 -0.22 -0.59 1000.092 4054.02 7452.06
0.69 994.81 3.47 -0.62 0.25 0.95 0.09 -0.36 1.59 -0.22 -0.58 1000.592 4054.02 7452.06
1.25 994.74 2.45 0.14 0.54 0.89 0.09 -0.36 1.59 -0.22 -0.59 1001.093 4054.02 7452.06
1.47 994.72 2.47 0.17 0.14 0.90 0.09 -0.37 1.59 -0.22 -0.59 1001.593 4054.02 7452.06
1.18 994.75 0.99 -2.20 -0.21 1.04 0.05 -0.35 1.59 -0.21 -0.59 1002.096 4054.02 7452.06
1.01 994.77 1.97 -2.03 -3.64 0.88 0.12 -0.4 1.58 -0.23 -0.61 1002.597 4054.02 7452.06
0.94 994.78 4.66 -2.43 -0.38 0.91 0.11 -0.39 1.57 -0.23 -0.61 1003.099 4054.02 7452.06
0.71 994.81 3.26 -0.28 0.20 0.85 0.18 -0.41 1.57 -0.24 -0.62 1003.598 4054.02 7452.06
0.85 994.79 -2.10 10.38 -4.05 0.91 0.17 -0.39 1.57 -0.23 -0.61 1004.164 4054.02 7452.06
1.17 994.75 1.40 9.16 -2.81 0.86 0.22 -0.39 1.57 -0.23 -0.61 1004.6 4054.02 7452.06
1.14 994.76 13.93 7.18 8.23 1.27 0.32 -0.52 1.61 -0.27 -0.52 1005.18 4054.02 7452.06
1.27 994.74 -22.43 22.37 10.30 0.77 -0.60 -0.35 1.62 -0.33 -0.44 1005.606 4054.02 7452.06
1.36 994.73 -26.46 8.57 0.37 0.59 -0.42 -0.59 1.58 -0.41 -0.33 1006.105 4054.02 7452.06
1.43 994.72 6.69 -0.22 -52.58 0.40 -0.35 -0.47 1.62 -0.20 -0.25 1006.607 4054.02 7452.06
1.84 994.67 13.67 17.59 -20.87 0.75 -0.65 -0.12 1.59 -0.12 -0.20 1007.184 4054.02 7452.06
1.73 994.69 -10.52 -10.10 -8.10 0.70 -0.68 -0.01 1.57 -0.04 -0.22 1007.611 4054.02 7452.06
2.45 994.60 -3.25 -7.00 1.80 0.80 -0.34 0.23 1.58 -0.00 -0.26 1008.184 4054.02 7452.06
1.98 994.66 3.26 3.12 8.65 0.73 -0.67 0.12 1.59 -0.01 -0.25 1008.609 4054.02 7452.06
1.79 994.68 -1.74 -4.32 -9.19 0.77 -0.59 -0.0 1.60 -0.04 -0.27 1009.209 4054.02 7452.06
2.03 994.65 13.46 -5.12 2.33 0.76 -0.60 0.03 1.61 -0.05 -0.29 1009.613 4054.02 7452.06
1.92 994.66 7.54 -8.03 -1.78 0.92 -0.94 0.06 1.61 -0.05 -0.28 1010.135 4054.02 7452.06
2.09 994.64 6.36 1.75 -7.49 0.79 -0.58 -0.01 1.60 -0.05 -0.28 1010.613 4054.02 7452.06
1.56 994.71 2.09 -1.65 -2.34 0.79 -0.58 0.03 1.60 -0.03 -0.29 1011.191 4054.02 7452.06
1.81 994.68 3.25 0.23 -2.95 0.80 -0.57 0.04 1.60 -0.03 -0.28 1011.616 4054.02 7452.06
2.01 994.65 21.06 -2.94 5.02 0.83 -0.62 0.02 1.59 -0.01 -0.27 1012.14 4054.02 7452.06
2.18 994.63 -0.38 -33.29 -16.99 0.81 -0.52 0.07 1.59 0.01 -0.29 1012.621 4054.02 7452.06
1.89 994.67 3.73 -11.16 -12.43 0.89 -0.56 0.0 1.59 0.01 -0.33 1013.196 4054.02 7452.06
1.89 994.67 -4.51 -2.93 16.67 0.75 -0.18 0.13 1.60 0.02 -0.33 1013.621 4054.02 7452.06
1.28 994.74 -5.12 -3.21 6.07 0.90 -0.38 -0.01 1.61 -0.01 -0.34 1014.198 4054.02 7452.06
1.84 994.67 0.52 -3.11 -0.61 0.89 -0.41 0.01 1.62 -0.03 -0.36 1014.623 4054.02 7452.06
2.11 994.64 3.33 -0.02 -1.30 0.91 -0.41 0.02 1.61 -0.02 -0.37 1015.13 4054.02 7452.06
1.70 994.69 2.12 -1.73 -0.96 0.90 -0.40 0.04 1.62 -0.01 -0.37 1015.625 4054.02 7452.06
1.47 994.72 2.67 -0.76 0.63 0.90 -0.39 0.03 1.61 -0.02 -0.37 1016.225 4054.02 7452.06
1.61 994.70 1.13 -1.39 -0.17 0.91 -0.38 0.04 1.62 -0.02 -0.38 1016.628 4054.02 7452.06
1.42 994.72 1.42 -0.24 0.20 0.90 -0.38 0.04 1.61 -0.01 -0.38 1017.149 4054.02 7452.06
1.65 994.70 3.05 -2.35 -0.10 0.91 -0.39 0.04 1.61 -0.01 -0.38 1017.63 4054.02 7452.06
1.56 994.71 0.03 1.09 0.92 0.91 -0.37 0.04 1.61 -0.01 -0.39 1018.202 4054.02 7452.06
1.92 994.66 3.96 1.27 0.60 0.91 -0.38 0.04 1.61 -0.02 -0.38 1018.631 4054.02 7452.06
1.38 994.73 2.98 0.29 0.17 0.91 -0.38 0.04 1.61 -0.02 -0.39 1019.229 4054.02 7452.06
1.63 994.70 1.55 -1.05 0.03 0.91 -0.37 0.04 1.61 -0.01 -0.38 1019.633 4054.02 7452.06
1.78 994.68 2.09 0.14 0.17 0.91 -0.36 0.05 1.61 -0.01 -0.39 1020.152 4054.02 7452.06
1.50 994.71 2.15 0.77 0.84 0.92 -0.36 0.04 1.62 -0.01 -0.38 1020.635 4054.02 7452.06
1.22 994.75 2.32 -0.24 0.24 0.91 -0.37 0.04 1.61 -0.01 -0.38 1021.191 4054.02 7452.06
1.69 994.69 2.49 -1.23 0.18 0.92 -0.36 0.05 1.61 -0.01 -0.39 1021.637 4054.02 7452.06
1.14 994.76 0.38 0.93 0.36 0.91 -0.36 0.04 1.61 -0.02 -0.39 1022.154 4054.02 7452.06
2.19 994.63 1.81 -0.51 -0.68 0.91 -0.37 0.05 1.61 -0.02 -0.39 1022.641 4054.02 7452.06
1.98 994.66 1.01 -0.97 0.83 0.92 -0.36 0.05 1.61 -0.01 -0.38 1023.162 4054.02 7452.06
2.02 994.65 3.72 0.57 0.03 0.91 -0.36 0.04 1.60 -0.01 -0.39 1023.64 4054.02 7452.06
1.60 994.70 1.74 1.38 0.62 0.92 -0.36 0.04 1.62 -0.01 -0.39 1024.159 4054.02 7452.06
2.11 994.64 3.03 1.09 0.83 0.91 -0.37 0.05 1.61 -0.02 -0.40 1024.643 4054.02 7452.06
1.84 994.67 2.16 -0.66 0.63 0.91 -0.37 0.03 1.61 -0.01 -0.39 1025.236 4054.02 7452.06
1.63 994.70 2.71 0.48 0.06 0.92 -0.35 0.05 1.62 -0.02 -0.39 1025.644 4054.02 7452.06
1.27 994.74 2.39 0.42 0.30 0.91 -0.36 0.03 1.61 -0.02 -0.38 1026.243 4054.02 7452.06
1.87 994.67 2.08 0.13 0.20 0.92 -0.36 0.05 1.61 -0.02 -0.38 1026.647 4054.02 7452.06
1.60 994.70 1.58 -0.18 -0.03 0.92 -0.37 0.06 1.61 -0.01 -0.39 1027.248 4054.02 7452.06
1.96 994.66 1.01 1.46 0.41 0.92 -0.38 0.05 1.61 -0.02 -0.38 1027.648 4054.02 7452.06
1.96 994.66 18.83 -43.84 5.65 0.90 -0.10 -0.01 1.60 -0.01 -0.51 1028.213 4054.02 7452.06
1.38 994.73 5.00 16.62 2.15 0.95 0.08 -0.04 1.59 -0.02 -0.54 1028.649 4054.02 7452.06
2.06 994.65 5.63 -0.30 -19.75 0.89 0.01 -0.17 1.60 -0.05 -0.47 1029.25 4054.02 7452.06
2.24 994.63 0.98 8.82 0.60 0.87 -0.10 -0.12 1.59 -0.03 -0.46 1029.651 4054.02 7452.06
2.24 994.63 6.24 -6.13 3.36 0.96 -0.06 -0.04 1.59 -0.01 -0.46 1030.243 4054.02 7452.06
1.67 994.69 -6.49 0.45 -5.65 0.98 -0.06 -0.07 1.59 -0.01 -0.47 1030.656 4054.02 7452.06
2.27 994.62 4.77 0.90 0.32 0.98 -0.03 -0.07 1.59 -0.01 -0.47 1031.209 4054.02 7452.06
2.55 994.59 -3.73 -1.77 0.79 0.99 -0.06 -0.04 1.59 -0.01 -0.47 1031.657 4054.02 7452.06
2.18 994.63 4.33 0.44 1.50 0.98 -0.03 -0.05 1.59 -0.01 -0.48 1032.254 4054.02 7452.06
2.06 994.65 2.04 0.38 -0.47 0.98 -0.04 -0.05 1.59 -0.01 -0.48 1032.658 4054.02 7452.06
2.27 994.62 -2.79 -10.61 -2.49 1.00 -0.00 -0.09 1.59 -0.02 -0.48 1033.247 4054.02 7452.06
2.01 994.65 3.52 5.40 5.17 0.91 -0.08 -0.07 1.60 -0.03 -0.47 1033.659 4054.02 7452.06
2.43 994.60 8.14 7.13 11.42 0.99 -0.11 -0.08 1.60 -0.03 -0.45 1034.263 4054.02 7452.06
2.32 994.62 1.99 9.56 -13.93 0.98 -0.16 -0.11 1.60 -0.05 -0.45 1034.664 4054.02 7452.06
2.57 994.59 -3.18 1.93 -7.28 1.00 -0.14 -0.07 1.61 -0.02 -0.44 1035.218 4054.02 7452.06
1.60 994.70 -6.15 5.53 14.86 0.93 -0.14 -0.1 1.61 -0.05 -0.44 1035.666 4054.02 7452.06
2.13 994.64 9.47 4.30 0.50 0.93 -0.17 -0.14 1.62 -0.06 -0.42 1036.246 4054.02 7452.06
2.17 994.63 -0.52 1.07 2.70 0.95 -0.16 -0.14 1.62 -0.06 -0.43 1036.667 4054.02 7452.06
1.97 994.66 -0.82 0.22 -1.19 0.97 -0.18 -0.12 1.62 -0.06 -0.43 1037.266 4054.02 7452.06
2.34 994.61 2.14 -10.08 -1.64 0.96 -0.15 -0.16 1.62 -0.06 -0.42 1037.671 4054.02 7452.06
2.11 994.64 20.19 -8.61 -9.45 0.96 -0.29 -0.14 1.61 -0.05 -0.40 1038.234 4054.02 7452.06
1.68 994.69 32.03 1.67 1.01 1.00 -0.22 -0.14 1.61 -0.04 -0.35 1038.671 4054.02 7452.06
1.81 994.68 -0.82 5.80 7.02 0.95 -0.23 -0.14 1.61 -0.02 -0.35 1039.249 4054.02 7452.06
1.59 994.70 3.50 5.61 2.21 0.94 -0.22 -0.15 1.61 -0.03 -0.34 1039.672 4054.02 7452.06
1.74 994.69 2.42 -1.02 0.49 0.95 -0.18 -0.13 1.61 -0.03 -0.35 1040.252 4054.02 7452.06
1.80 994.68 5.37 -0.16 -1.17 0.96 -0.19 -0.12 1.61 -0.01 -0.34 1040.676 4054.02 7452.06
2.42 994.61 2.99 0.55 -1.50 0.94 -0.19 -0.12 1.60 -0.02 -0.34 1041.254 4054.02 7452.06
1.99 994.66 3.03 2.57 0.08 0.95 -0.20 -0.13 1.60 -0.02 -0.34 1041.676 4054.02 7452.06
1.99 994.66 6.20 -0.77 0.19 0.94 -0.22 -0.13 1.60 -0.02 -0.33 1042.256 4054.02 7452.06
1.77 994.68 3.34 -0.72 0.01 0.95 -0.21 -0.12 1.60 -0.01 -0.32 1042.679 4054.02 7452.06
1.73 994.69 1.88 1.03 -0.86 0.95 -0.21 -0.11 1.60 -0.01 -0.33 1043.259 4054.02 7452.06
1.65 994.70 2.27 0.48 1.11 0.95 -0.22 -0.12 1.60 -0.01 -0.33 1043.68 4054.02 7452.06
2.18 994.63 1.32 0.32 0.78 0.95 -0.23 -0.12 1.60 -0.01 -0.32 1044.281 4054.02 7452.06
2.04 994.65 3.33 0.81 0.53 0.95 -0.22 -0.12 1.60 -0.01 -0.31 1044.682 4054.02 7452.06
1.84 994.67 3.11 -0.58 0.16 0.94 -0.22 -0.12 1.60 -0.01 -0.32 1045.277 4054.02 7452.06
1.68 994.69 4.31 -2.94 -2.42 0.94 -0.24 -0.1 1.60 -0.00 -0.32 1045.686 4054.02 7452.06
2.27 994.62 -10.26 4.12 7.11 0.92 -0.26 -0.15 1.60 -0.01 -0.32 1046.253 4054.02 7452.06
1.75 994.68 -3.34 -0.45 3.03 0.94 -0.25 -0.13 1.61 -0.03 -0.33 1046.688 4054.02 7452.06
2.66 994.58 0.71 3.60 1.32 0.95 -0.22 -0.16 1.60 -0.04 -0.31 1047.247 4054.02 7452.06
2.25 994.62 1.16 -16.19 0.52 0.97 -0.28 -0.18 1.61 -0.03 -0.35 1047.69 4054.02 7452.06
1.90 994.67 14.36 -1.60 -3.35 0.97 -0.14 -0.15 1.61 -0.03 -0.36 1048.253 4054.02 7452.06
1.93 994.66 -6.84 -5.43 2.39 0.87 -0.24 -0.11 1.61 -0.04 -0.35 1048.692 4054.02 7452.06
1.98 994.66 -23.10 -7.14 -2.56 0.93 -0.24 -0.16 1.62 -0.05 -0.36 1049.269 4054.02 7452.06
2.24 994.63 4.20 8.01 3.71 0.93 -0.27 -0.15 1.62 -0.06 -0.37 1049.692 4054.02 7452.06
2.07 994.65 2.11 1.79 -0.17 0.93 -0.28 -0.16 1.62 -0.07 -0.36 1050.249 4054.02 7452.06
1.90 994.67 0.58 -1.79 1.63 0.92 -0.31 -0.14 1.63 -0.08 -0.37 1050.695 4054.02 7452.06
1.56 994.71 2.12 1.37 1.16 0.92 -0.30 -0.13 1.62 -0.07 -0.37 1051.272 4054.02 7452.06
2.17 994.63 3.47 1.95 0.04 0.93 -0.30 -0.15 1.62 -0.08 -0.37 1051.697 4054.02 7452.06
1.94 994.66 2.07 1.14 -0.03 0.92 -0.31 -0.16 1.62 -0.07 -0.37 1052.293 4054.02 7452.06
1.86 994.67 2.55 0.29 -0.25 0.92 -0.31 -0.14 1.62 -0.07 -0.38 1052.7 4054.02 7452.06
1.87 994.67 2.16 0.01 1.63 0.93 -0.31 -0.14 1.62 -0.07 -0.37 1053.245 4054.02 7452.06
2.19 994.63 2.04 -0.23 -0.39 0.92 -0.30 -0.14 1.62 -0.08 -0.37 1053.704 4054.02 7452.06
1.56 994.71 6.71 1.89 3.49 0.91 -0.30 -0.14 1.62 -0.08 -0.37 1054.257 4054.02 7452.06
1.54 994.71 3.19 2.22 1.69 0.92 -0.30 -0.17 1.63 -0.09 -0.36 1054.703 4054.02 7452.06
2.15 994.64 6.70 0.02 0.69 0.92 -0.30 -0.18 1.62 -0.09 -0.39 1055.259 4054.02 7452.06
2.35 994.61 1.54 -0.20 -1.05 0.92 -0.31 -0.18 1.62 -0.09 -0.37 1055.708 4054.02 7452.06
2.12 994.64 3.92 0.18 -0.68 0.92 -0.31 -0.17 1.62 -0.08 -0.33 1056.3 4054.02 7452.06
1.94 994.66 1.54 0.66 0.31 0.92 -0.31 -0.17 1.62 -0.08 -0.36 1056.707 4054.02 7452.06
1.66 994.69 2.12 0.43 0.13 0.92 -0.31 -0.17 1.62 -0.08 -0.37 1057.295 4054.02 7452.06
1.79 994.68 1.56 0.39 -0.24 0.91 -0.31 -0.16 1.62 -0.08 -0.35 1057.711 4054.02 7452.06
2.13 994.64 2.97 0.57 -0.67 0.92 -0.31 -0.16 1.62 -0.08 -0.36 1058.253 4054.02 7452.06
1.98 994.66 3.00 -0.74 -0.29 0.91 -0.31 -0.15 1.62 -0.08 -0.35 1058.713 4054.02 7452.06
2.34 994.61 1.12 0.45 0.47 0.92 -0.31 -0.16 1.62 -0.08 -0.36 1059.311 4054.02 7452.06
1.98 994.66 1.59 1.00 0.80 0.92 -0.31 -0.16 1.63 -0.08 -0.36 1059.714 4054.02 7452.06
2.06 994.65 2.46 0.47 0.84 0.92 -0.31 -0.17 1.62 -0.08 -0.37 1060.27 4054.02 7452.06
2.43 994.60 3.26 0.63 0.77 0.92 -0.31 -0.16 1.62 -0.08 -0.36 1060.715 4054.02 7452.06
2.01 994.65 1.55 -0.50 -0.05 0.92 -0.30 -0.16 1.62 -0.08 -0.37 1061.278 4054.02 7452.06
2.36 994.61 2.65 -1.89 -0.52 0.92 -0.31 -0.15 1.62 -0.07 -0.37 1061.72 4054.02 7452.06
2.14 994.64 0.25 1.07 2.63 0.92 -0.30 -0.15 1.62 -0.08 -0.36 1062.274 4054.02 7452.06
2.10 994.64 3.99 -0.15 -0.29 0.92 -0.30 -0.15 1.62 -0.08 -0.36 1062.721 4054.02 7452.06
1.98 994.66 2.19 0.47 1.24 0.92 -0.30 -0.16 1.62 -0.08 -0.36 1063.3 4054.02 7452.06
1.79 994.68 1.12 2.20 -1.12 0.92 -0.30 -0.15 1.62 -0.07 -0.36 1063.723 4054.02 7452.06
2.04 994.65 0.17 1.24 1.11 0.93 -0.30 -0.14 1.62 -0.07 -0.36 1064.28 4054.02 7452.06
1.83 994.67 3.82 -0.10 -0.16 0.92 -0.31 -0.15 1.62 -0.08 -0.37 1064.725 4054.02 7452.06
1.99 994.66 2.56 0.11 0.45 0.92 -0.30 -0.16 1.62 -0.07 -0.35 1065.325 4054.02 7452.06
2.08 994.65 2.42 0.80 1.43 0.93 -0.30 -0.16 1.62 -0.07 -0.37 1065.725 4054.02 7452.06
1.34 994.73 2.28 0.70 -0.15 0.92 -0.31 -0.15 1.62 -0.07 -0.37 1066.311 4054.02 7452.06
1.99 994.66 2.56 -0.12 0.15 0.92 -0.31 -0.15 1.62 -0.07 -0.37 1066.728 4054.02 7452.06
1.88 994.67 3.26 0.31 -0.18 0.91 -0.30 -0.15 1.62 -0.07 -0.36 1067.324 4054.02 7452.06
2.30 994.62 3.49 1.68 -0.02 0.92 -0.34 -0.13 1.62 -0.06 -0.36 1067.73 4054.02 7452.06
1.92 994.66 -3.19 11.11 -1.94 0.87 -0.37 -0.14 1.62 -0.07 -0.35 1068.309 4054.02 7452.06
2.17 994.63 0.83 6.54 -0.66 0.89 -0.40 -0.15 1.62 -0.08 -0.33 1068.732 4054.02 7452.06
1.76 994.68 -0.98 -1.94 4.96 0.89 -0.37 -0.14 1.62 -0.08 -0.34 1069.284 4054.02 7452.06
2.15 994.64 8.85 2.29 -0.89 0.90 -0.35 -0.16 1.62 -0.07 -0.34 1069.735 4054.01 7452.06
1.93 994.66 -3.73 0.27 2.98 0.89 -0.36 -0.16 1.62 -0.08 -0.34 1070.322 4054.01 7452.06
2.01 994.65 2.83 -0.87 -1.97 0.90 -0.35 -0.16 1.62 -0.08 -0.34 1070.738 4054.01 7452.06
1.38 994.73 3.63 5.92 0.16 0.92 -0.36 -0.22 1.62 -0.07 -0.35 1071.29 4054.01 7452.06
1.32 994.73 6.70 -3.19 -2.50 0.94 -0.33 -0.16 1.62 -0.06 -0.34 1071.751 4054.01 7452.06
2.02 994.65 13.81 -6.21 -6.16 0.96 -0.41 -0.11 1.61 -0.05 -0.33 1072.304 4054.01 7452.06
2.02 994.65 7.21 -4.09 -7.42 0.93 -0.31 -0.08 1.60 -0.01 -0.33 1072.76 4054.01 7452.06
2.01 994.65 4.29 0.00 0.68 0.93 -0.32 -0.06 1.60 -0.01 -0.33 1073.338 4054.01 7452.06
1.72 994.69 2.70 2.12 0.90 0.92 -0.33 -0.07 1.59 -0.01 -0.33 1073.76 4054.01 7452.06
2.28 994.62 -0.38 4.93 3.96 0.94 -0.32 -0.06 1.59 -0.01 -0.32 1074.298 4054.01 7452.06
2.13 994.64 -1.09 5.15 3.50 0.95 -0.35 -0.06 1.60 -0.01 -0.33 1074.763 4054.01 7452.06
2.00 994.65 10.69 -3.84 1.23 0.92 -0.31 -0.07 1.60 -0.02 -0.32 1075.307 4054.01 7452.06
1.78 994.68 -0.21 2.37 0.52 0.94 -0.33 -0.06 1.60 -0.01 -0.33 1075.765 4054.01 7452.06
2.06 994.65 6.57 -1.95 -1.60 0.93 -0.31 -0.08 1.60 -0.01 -0.32 1076.311 4054.01 7452.06
2.22 994.63 5.18 0.67 1.01 0.93 -0.32 -0.07 1.59 -0.00 -0.33 1076.766 4054.01 7452.06
2.06 994.65 0.64 1.65 -2.24 0.93 -0.32 -0.07 1.60 -0.00 -0.32 1077.335 4054.01 7452.06
2.39 994.61 1.42 -2.94 -1.50 0.93 -0.31 -0.05 1.60 0.00 -0.33 1077.769 4054.01 7452.06
1.80 994.68 4.45 1.11 1.09 0.92 -0.30 -0.04 1.59 0.00 -0.33 1078.33 4054.01 7452.06
2.19 994.63 2.80 1.00 0.07 0.94 -0.30 -0.06 1.59 0.01 -0.33 1078.769 4054.01 7452.06
1.87 994.67 -2.60 -2.23 -0.06 0.92 -0.30 -0.03 1.59 0.00 -0.33 1079.318 4054.01 7452.06
2.21 994.63 3.38 0.41 0.62 0.93 -0.30 -0.05 1.59 -0.00 -0.34 1079.772 4054.01 7452.06
2.22 994.63 1.21 2.01 -0.08 0.95 -0.31 -0.05 1.59 -0.03 -0.34 1080.336 4054.01 7452.06
2.26 994.62 0.45 1.78 0.59 0.93 -0.30 -0.04 1.59 0.01 -0.34 1080.773 4054.01 7452.06
1.84 994.67 -1.14 -0.55 1.65 0.92 -0.32 -0.04 1.60 -0.00 -0.33 1081.319 4054.01 7452.06
1.50 994.71 6.17 -7.64 -3.47 0.95 -0.31 -0.04 1.59 -0.00 -0.34 1081.779 4054.01 7452.06
1.69 994.69 4.99 -3.40 3.38 0.96 -0.28 -0.0 1.59 0.02 -0.36 1082.317 4054.01 7452.06
1.78 994.68 1.74 0.06 0.09 0.95 -0.28 -0.02 1.59 0.01 -0.36 1082.778 4054.01 7452.06
2.05 994.65 3.56 -0.15 -1.84 0.94 -0.29 -0.04 1.60 -0.00 -0.36 1083.301 4054.01 7452.06
2.26 994.62 1.68 0.24 -0.57 0.94 -0.30 -0.05 1.60 -0.00 -0.35 1083.783 4054.01 7452.06
2.21 994.63 4.18 -0.60 -0.37 0.95 -0.29 -0.04 1.60 0.00 -0.35 1084.335 4054.01 7452.06
2.18 994.63 0.38 -2.57 -3.82 0.94 -0.29 -0.04 1.59 0.00 -0.36 1084.792 4054.01 7452.06
1.93 994.66 -2.80 3.37 2.22 0.93 -0.29 -0.03 1.59 0.00 -0.35 1085.309 4054.01 7452.06
2.09 994.64 -0.08 2.49 0.54 0.94 -0.30 -0.03 1.59 0.01 -0.36 1085.793 4054.01 7452.06
1.31 994.74 3.94 0.08 3.42 0.93 -0.26 -0.06 1.59 0.00 -0.35 1086.348 4054.01 7452.06
1.75 994.68 3.68 -4.71 -2.56 0.94 -0.27 -0.01 1.59 0.01 -0.37 1086.811 4054.01 7452.06
2.14 994.64 1.93 1.01 -0.41 0.94 -0.27 -0.03 1.59 0.02 -0.36 1087.356 4054.01 7452.06
1.73 994.69 3.27 -0.56 -3.13 0.94 -0.28 -0.04 1.60 0.01 -0.36 1087.815 4054.01 7452.06
1.75 994.68 5.88 -7.88 -0.34 0.90 -0.26 -0.04 1.59 0.02 -0.38 1088.356 4054.01 7452.06
2.12 994.64 5.36 6.17 0.64 0.91 -0.27 -0.03 1.59 0.01 -0.36 1088.816 4054.01 7452.06
1.77 994.68 3.38 3.79 -0.14 1.19 -0.45 -0.19 1.59 0.01 -0.36 1089.329 4054.01 7452.06
2.17 994.64 -1.06 3.99 5.01 0.94 -0.29 -0.04 1.60 0.01 -0.34 1089.819 4054.01 7452.06
2.17 994.64 4.54 -2.14 -1.19 0.94 -0.13 0.03 1.60 -0.00 -0.34 1090.358 4054.01 7452.06
2.18 994.63 1.90 -0.09 -0.05 0.92 -0.32 -0.04 1.60 0.01 -0.34 1090.823 4054.01 7452.06
2.23 994.63 3.30 -0.49 -2.67 0.93 -0.32 -0.02 1.59 0.01 -0.34 1091.368 4054.01 7452.06
2.47 994.60 2.32 0.56 0.79 0.92 -0.33 -0.03 1.59 0.01 -0.34 1091.822 4054.01 7452.06
2.34 994.61 3.19 -2.27 -4.19 0.93 -0.33 -0.03 1.60 -0.00 -0.34 1092.33 4054.01 7452.06
2.24 994.63 4.46 -0.88 -1.37 0.93 -0.32 -0.04 1.59 0.01 -0.35 1092.827 4054.01 7452.06
2.29 994.62 -0.20 3.62 3.03 0.92 -0.31 -0.03 1.59 0.01 -0.35 1093.326 4054.01 7452.06
2.21 994.63 4.55 -5.68 -4.07 0.95 -0.33 0.01 1.59 0.02 -0.34 1093.829 4054.01 7452.06
2.20 994.63 7.78 0.60 3.89 0.92 -0.29 0.02 1.59 0.03 -0.36 1094.364 4054.01 7452.06
2.13 994.64 -6.37 0.46 5.44 1.12 0.20 0.07 1.58 0.03 -0.35 1094.83 4054.01 7452.06
2.34 994.62 6.38 -8.04 -5.43 0.96 -0.25 0.01 1.59 0.03 -0.36 1095.332 4054.01 7452.06
1.88 994.67 0.90 -4.33 -1.65 0.93 -0.26 -0.01 1.59 0.03 -0.36 1095.832 4054.01 7452.06
1.99 994.66 4.10 3.33 3.29 0.95 -0.27 0.01 1.58 0.03 -0.36 1096.332 4054.01 7452.06
2.30 994.62 3.48 -2.17 -0.95 0.94 -0.27 0.0 1.59 0.03 -0.35 1096.836 4054.01 7452.06
2.18 994.63 1.64 1.13 1.15 0.95 -0.27 0.01 1.59 0.03 -0.36 1097.382 4054.01 7452.06
2.34 994.61 1.43 0.10 -0.43 0.95 -0.26 0.01 1.59 0.03 -0.36 1097.842 4054.01 7452.06
2.56 994.59 4.35 1.00 0.12 0.94 -0.27 0.01 1.58 0.04 -0.36 1098.342 4054.01 7452.06
1.98 994.66 3.12 -0.60 0.54 0.95 -0.26 0.02 1.58 0.04 -0.36 1098.845 4054.01 7452.06
2.18 994.63 2.91 -0.17 -0.29 0.94 -0.27 0.01 1.58 0.03 -0.36 1099.367 4054.01 7452.06
2.17 994.64 2.45 1.27 1.46 0.94 -0.27 0.01 1.59 0.03 -0.36 1099.846 4054.01 7452.06
2.49 994.60 2.51 6.89 9.53 0.94 -0.26 0.02 1.58 0.04 -0.36 1100.376 4054.01 7452.06
2.06 994.65 3.04 0.68 -0.31 0.95 -0.28 0.01 1.58 0.03 -0.36 1100.85 4054.01 7452.06
1.98 994.66 4.38 0.14 0.74 0.95 -0.27 0.01 1.59 0.04 -0.35 1101.363 4054.01 7452.06
2.07 994.65 3.32 -1.20 0.52 0.94 -0.27 0.0 1.59 0.03 -0.36 1101.852 4054.01 7452.06
2.32 994.62 1.30 1.26 1.58 0.95 -0.27 0.02 1.59 0.04 -0.36 1102.352 4054.01 7452.06
2.13 994.64 2.54 2.38 1.24 0.95 -0.26 0.01 1.59 0.03 -0.37 1102.854 4054.01 7452.06
2.21 994.63 2.16 0.86 0.52 0.94 -0.27 0.02 1.59 0.03 -0.36 1103.384 4054.01 7452.06
2.25 994.63 1.99 0.99 1.70 0.94 -0.29 0.01 1.59 0.03 -0.36 1103.855 4054.01 7452.06
2.02 994.65 2.81 0.45 0.47 0.97 -0.31 0.01 1.59 0.03 -0.36 1104.356 4054.01 7452.06
1.71 994.69 1.78 12.82 -4.54 0.93 -0.42 -0.1 1.60 0.03 -0.35 1104.859 4054.01 7452.06
2.01 994.65 6.85 7.59 -1.16 0.87 0.01 0.1 1.59 0.03 -0.34 1105.387 4054.01 7452.06
2.09 994.64 -1.69 4.09 0.69 0.91 -0.34 0.03 1.59 0.04 -0.34 1105.86 4054.01 7452.06
1.96 994.66 3.25 -1.11 -1.21 0.93 -0.34 0.03 1.58 0.04 -0.33 1106.362 4054.01 7452.06
1.40 994.73 0.68 0.09 1.35 0.93 -0.33 0.02 1.58 0.04 -0.33 1106.862 4054.01 7452.06
1.81 994.68 2.31 1.58 1.66 0.92 -0.31 0.03 1.59 0.04 -0.34 1107.375 4054.01 7452.06
1.99 994.66 1.31 -2.19 -0.86 0.91 -0.32 0.01 1.59 0.04 -0.34 1107.865 4054.01 7452.06
2.45 994.60 5.08 -3.75 -0.40 0.92 -0.27 0.09 1.59 0.04 -0.34 1108.379 4054.01 7452.06
2.49 994.60 2.45 1.12 2.44 0.93 -0.32 0.02 1.59 0.03 -0.35 1108.866 4054.01 7452.06
2.05 994.65 4.30 -0.05 0.70 0.98 -0.52 -0.0 1.59 0.03 -0.35 1109.386 4054.01 7452.06
1.91 994.66 4.03 -0.20 0.45 0.94 -0.28 -0.0 1.59 0.04 -0.34 1109.867 4054.01 7452.06
1.77 994.68 -0.93 3.95 1.81 0.91 -0.25 -0.01 1.59 0.04 -0.34 1110.368 4054.01 7452.06
1.79 994.68 2.91 -0.53 0.16 0.93 -0.29 0.01 1.58 0.04 -0.34 1110.871 4054.01 7452.06
2.01 994.65 1.03 1.01 0.53 0.94 -0.30 0.02 1.58 0.04 -0.35 1111.378 4054.01 7452.06
2.75 994.57 3.15 -0.39 -0.11 0.93 -0.29 0.02 1.58 0.04 -0.35 1111.873 4054.01 7452.06
2.15 994.64 1.57 1.47 0.79 0.94 -0.29 0.03 1.58 0.04 -0.34 1112.376 4054.01 7452.06
2.12 994.64 2.26 0.91 1.15 0.94 -0.30 0.02 1.59 0.04 -0.35 1112.873 4054.01 7452.06
2.05 994.65 3.14 0.59 0.04 0.94 -0.30 0.02 1.59 0.04 -0.35 1113.374 4054.01 7452.06
2.05 994.65 2.00 0.12 -0.37 0.94 -0.30 0.02 1.58 0.04 -0.35 1113.876 4054.01 7452.06
1.69 994.69 1.68 -0.74 -0.79 0.94 -0.29 0.04 1.58 0.04 -0.35 1114.378 4054.01 7452.06
2.01 994.65 2.50 1.01 1.00 0.94 -0.30 0.03 1.58 0.05 -0.35 1114.877 4054.01 7452.06
2.40 994.61 2.50 1.03 1.02 0.93 -0.31 0.03 1.59 0.04 -0.34 1115.393 4054.01 7452.06
2.44 994.60 2.89 -0.84 -0.10 0.93 -0.28 0.03 1.58 0.04 -0.35 1115.881 4054.01 7452.06
2.34 994.62 1.96 0.14 0.61 0.93 -0.28 0.03 1.58 0.04 -0.34 1116.38 4054.01 7452.06
2.04 994.65 2.88 -0.49 0.64 0.94 -0.30 0.02 1.59 0.04 -0.34 1116.882 4054.01 7452.06
2.15 994.64 2.46 0.54 0.35 0.94 -0.29 0.02 1.58 0.04 -0.35 1117.382 4054.01 7452.06
2.36 994.61 2.23 -1.28 -1.08 1.00 -0.26 0.04 1.58 0.04 -0.35 1117.885 4054.01 7452.06
2.49 994.60 2.81 -0.86 -3.06 0.96 -0.28 0.04 1.58 0.05 -0.36 1118.387 4054.01 7452.06
2.63 994.58 4.00 -2.35 -1.84 0.95 -0.28 0.05 1.58 0.05 -0.36 1118.888 4054.01 7452.06
2.02 994.65 2.04 0.08 -0.27 0.95 -0.31 0.05 1.58 0.06 -0.36 1119.388 4054.01 7452.06
2.18 994.63 4.18 0.56 -0.29 0.95 -0.28 0.05 1.58 0.06 -0.35 1119.889 4054.01 7452.06
1.86 994.67 1.09 1.69 0.31 0.94 -0.28 0.06 1.57 0.06 -0.35 1120.39 4054.01 7452.06
2.23 994.63 6.20 -3.20 7.23 0.97 -0.31 0.07 1.58 0.06 -0.35 1120.891 4054.01 7452.06
1.96 994.66 -44.06 22.81 4.64 0.88 -0.44 0.07 1.59 0.03 -0.34 1121.394 4054.01 7452.06
1.77 994.68 17.57 -19.19 5.36 0.97 -0.64 0.15 1.60 0.00 -0.36 1121.895 4054.01 7452.06
1.85 994.67 16.62 -0.08 -1.96 0.92 -0.36 -0.06 1.60 -0.00 -0.33 1122.397 4054.01 7452.06
2.40 994.61 -1.94 0.23 -4.92 0.90 -0.31 0.01 1.58 0.04 -0.32 1122.896 4054.01 7452.06
2.02 994.65 -1.65 -7.81 -2.29 0.86 -0.38 0.01 1.58 0.03 -0.34 1123.398 4054.01 7452.06
2.44 994.60 -17.95 -2.91 21.03 1.15 -0.46 0.06 1.59 0.03 -0.41 1123.9 4054.01 7452.06
1.97 994.66 -8.47 19.29 -4.13 0.93 -0.37 -0.22 1.61 -0.05 -0.36 1124.407 4054.01 7452.06
2.40 994.61 4.18 -8.24 -1.64 0.91 -0.33 -0.0 1.61 -0.03 -0.37 1124.9 4054.01 7452.06
2.48 994.60 -6.93 17.78 0.95 0.93 -0.35 -0.02 1.61 -0.02 -0.38 1125.401 4054.01 7452.06
2.44 994.60 0.82 -10.98 6.21 0.99 -0.30 -0.12 1.61 -0.03 -0.40 1125.902 4054.01 7452.06
2.19 994.63 19.05 26.75 14.13 0.97 -0.24 0.01 1.62 -0.04 -0.41 1126.406 4054.01 7452.06
1.86 994.67 53.95 -8.51 -12.83 0.99 -0.25 -0.13 1.59 0.02 -0.33 1126.905 4054.01 7452.06
1.89 994.67 -7.12 5.96 -8.52 0.72 0.15 -0.25 1.56 0.03 -0.25 1127.403 4054.01 7452.06
1.86 994.67 3.33 -6.71 -6.97 0.92 -0.41 -0.03 1.57 0.04 -0.25 1127.905 4054.01 7452.06
2.05 994.65 0.76 -2.41 2.74 0.91 -0.40 -0.04 1.57 0.03 -0.27 1128.406 4054.01 7452.06
2.27 994.62 4.97 0.13 -1.72 0.91 -0.37 -0.07 1.57 0.02 -0.25 1128.906 4054.01 7452.06
2.22 994.63 0.91 -0.31 0.84 0.91 -0.37 -0.07 1.57 0.03 -0.27 1129.407 4054.01 7452.06
1.62 994.70 7.08 3.15 3.32 0.89 -0.31 -0.06 1.57 0.02 -0.26 1129.907 4054.01 7452.06
2.17 994.63 4.09 0.67 -1.80 0.91 -0.37 -0.06 1.57 0.02 -0.25 1130.409 4054.01 7452.06
2.17 994.63 0.72 -0.98 2.67 0.91 -0.36 -0.09 1.57 0.02 -0.25 1130.91 4054.01 7452.06
2.27 994.62 2.28 3.79 -2.08 0.89 -0.36 -0.06 1.57 0.02 -0.26 1131.411 4054.01 7452.06
2.11 994.64 2.01 -6.50 -4.94 0.90 -0.41 -0.02 1.56 0.05 -0.27 1131.913 4054.01 7452.06
2.05 994.65 14.76 3.22 13.77 0.89 -0.31 0.02 1.57 0.03 -0.27 1132.418 4054.01 7452.06
1.89 994.67 32.15 2.48 -19.18 0.90 -0.37 -0.15 1.56 0.02 -0.23 1132.916 4054.01 7452.06
1.83 994.68 19.21 2.09 -13.16 0.91 -0.42 -0.06 1.53 0.03 -0.18 1133.417 4054.01 7452.06
1.61 994.70 -59.05 -5.38 20.56 0.74 -0.48 0.06 1.52 0.06 -0.18 1133.92 4054.01 7452.06
1.88 994.67 -44.09 -10.99 35.21 0.93 -0.43 -0.19 1.59 -0.01 -0.26 1134.423 4054.01 7452.06
1.87 994.67 -10.86 -2.49 -2.95 0.82 -0.38 -0.17 1.61 -0.06 -0.34 1134.922 4054.01 7452.06
2.22 994.63 -18.77 -0.59 11.59 0.12 -1.27 0.81 1.62 -0.07 -0.34 1135.424 4054.01 7452.06
1.90 994.67 -17.25 -6.85 -2.71 0.91 -0.59 0.16 1.62 -0.08 -0.37 1135.926 4054.01 7452.06
2.40 994.61 1.61 -6.81 21.52 1.13 -0.39 -0.05 1.63 -0.16 -0.40 1136.424 4054.01 7452.06
2.51 994.59 21.57 -3.33 -18.74 1.00 -0.24 -0.01 1.63 -0.14 -0.41 1136.927 4054.01 7452.06
2.25 994.63 8.48 9.06 8.65 0.88 -0.32 -0.11 1.62 -0.09 -0.35 1137.424 4054.01 7452.06
2.25 994.63 -11.31 -6.74 -8.86 0.87 -0.34 -0.16 1.62 -0.07 -0.38 1137.93 4054.01 7452.06
1.99 994.66 -18.49 3.97 23.20 0.86 -0.34 -0.13 1.63 -0.16 -0.36 1138.429 4054.01 7452.06
2.35 994.61 29.21 -6.26 2.37 0.76 -0.47 0.14 1.63 -0.13 -0.36 1138.93 4054.01 7452.06
2.23 994.63 -16.09 8.10 22.06 1.04 -0.62 -0.05 1.63 -0.08 -0.39 1139.431 4054.01 7452.06
1.75 994.68 -4.37 -12.61 -23.70 0.80 -0.46 -0.11 1.63 -0.15 -0.36 1139.935 4054.01 7452.06
2.67 994.58 -3.16 -1.67 -5.25 0.76 -0.39 -0.05 1.63 -0.13 -0.35 1140.433 4054.01 7452.06
2.19 994.63 -15.51 4.70 24.18 0.99 -0.35 0.01 1.64 -0.16 -0.35 1140.935 4054.01 7452.06
2.10 994.64 13.11 5.88 -12.13 0.97 -0.52 -0.14 1.64 -0.14 -0.35 1141.435 4054.01 7452.06
1.88 994.67 -8.85 -7.97 -8.36 0.68 -0.40 -0.07 1.63 -0.16 -0.36 1141.937 4054.01 7452.06
1.80 994.68 10.87 14.20 32.82 0.88 -0.39 -0.07 1.64 -0.22 -0.35 1142.437 4054.01 7452.06
1.60 994.70 8.93 21.03 -7.33 1.05 -0.86 -0.18 1.64 -0.18 -0.35 1142.937 4054.01 7452.06
2.24 994.63 -3.51 -14.75 -15.24 0.78 -0.52 -0.08 1.64 -0.14 -0.37 1143.441 4054.01 7452.05
2.68 994.57 12.89 -4.39 -12.57 0.95 -0.03 0.01 1.64 -0.16 -0.36 1143.943 4054.01 7452.05
2.37 994.61 24.73 20.23 5.49 0.79 -0.41 0.12 1.63 -0.10 -0.35 1144.441 4054.01 7452.05
2.50 994.60 -17.16 14.42 26.62 1.07 -0.49 -0.09 1.63 -0.14 -0.36 1144.943 4054.01 7452.05
2.04 994.65 5.39 -13.16 -16.04 0.84 -0.47 -0.18 1.63 -0.12 -0.37 1145.444 4054.02 7452.05
2.00 994.65 -8.16 -10.14 -3.35 0.67 -0.38 -0.06 1.63 -0.11 -0.35 1145.946 4054.02 7452.05
2.07 994.65 -5.59 16.97 19.79 0.70 -0.68 0.09 1.63 -0.19 -0.36 1146.446 4054.02 7452.05
2.79 994.56 46.94 -1.45 -23.92 1.08 -0.40 0.08 1.63 -0.10 -0.37 1146.948 4054.02 7452.05
2.65 994.58 -4.06 9.41 25.09 1.18 -0.56 -0.05 1.62 -0.05 -0.39 1147.446 4054.02 7452.05
2.35 994.61 -8.63 -1.17 -24.24 0.57 0.13 -0.12 1.63 -0.09 -0.38 1147.949 4054.02 7452.05
2.38 994.61 -1.00 -10.03 2.76 0.69 -0.34 -0.03 1.63 -0.09 -0.36 1148.449 4054.02 7452.05
2.30 994.62 -4.62 19.06 19.50 0.73 -0.27 0.05 1.64 -0.13 -0.37 1148.951 4054.02 7452.05
1.91 994.67 3.33 6.78 -18.36 1.05 -0.49 -0.13 1.63 -0.08 -0.36 1149.45 4054.02 7452.05
2.38 994.61 -15.32 -4.22 -5.70 0.82 -0.60 -0.02 1.63 -0.11 -0.36 1149.954 4054.02 7452.05
2.98 994.54 -17.71 24.62 29.25 0.86 -0.40 0.05 1.63 -0.16 -0.37 1150.455 4054.02 7452.05
2.70 994.57 38.63 7.90 -14.95 1.18 -0.53 0.11 1.63 -0.13 -0.35 1150.955 4054.02 7452.05
2.21 994.63 16.48 -1.07 17.81 1.05 -0.37 -0.13 1.63 -0.06 -0.37 1151.455 4054.02 7452.05
1.88 994.67 -7.29 -3.79 -13.74 0.78 -0.42 -0.15 1.63 -0.09 -0.38 1151.958 4054.02 7452.05
2.39 994.61 14.53 -6.48 18.92 0.79 -0.45 0.07 1.62 -0.08 -0.33 1152.458 4054.02 7452.05
2.41 994.61 -16.62 1.67 3.54 0.93 0.81 0.28 1.63 -0.08 -0.37 1152.957 4054.02 7452.05
2.30 994.62 1.49 12.13 8.95 1.63 0.25 -0.05 1.63 -0.11 -0.35 1153.457 4054.02 7452.05
3.10 994.53 -15.71 -3.65 0.79 0.98 -0.27 0.23 1.63 -0.14 -0.37 1153.963 4054.02 7452.05
2.47 994.60 -1.62 -3.01 -14.81 0.70 -0.20 -0.11 1.63 -0.18 -0.36 1154.463 4054.02 7452.05
2.23 994.63 14.13 -25.98 -2.67 0.58 -0.37 -0.02 1.63 -0.16 -0.35 1154.964 4054.02 7452.05
2.48 994.60 -7.13 16.42 3.47 0.75 -0.47 -0.0 1.63 -0.20 -0.34 1155.464 4054.02 7452.05
2.55 994.59 22.60 5.99 -5.46 0.99 -0.63 0.05 1.64 -0.17 -0.32 1155.965 4054.02 7452.05
2.01 994.65 -13.45 16.14 24.30 1.10 -0.80 -0.17 1.63 -0.16 -0.33 1156.467 4054.02 7452.05
1.96 994.66 6.65 -9.89 -14.09 0.80 -0.54 -0.22 1.64 -0.17 -0.32 1156.967 4054.02 7452.05
2.66 994.58 0.65 15.76 -10.11 0.56 -0.47 -0.18 1.63 -0.19 -0.32 1157.469 4054.02 7452.05
2.15 994.64 3.73 5.17 -2.51 0.53 -0.40 -0.24 1.63 -0.26 -0.28 1157.967 4054.02 7452.05
2.25 994.63 5.92 1.95 -16.04 0.45 -0.44 -0.23 1.62 -0.26 -0.29 1158.469 4054.02 7452.05
2.76 994.57 6.28 0.96 3.86 0.62 -0.60 -0.21 1.62 -0.27 -0.28 1158.968 4054.02 7452.05
2.42 994.61 7.06 13.67 -12.56 0.85 -0.71 -0.22 1.62 -0.25 -0.27 1159.473 4054.02 7452.05
2.15 994.64 -24.24 -1.20 16.13 1.11 -0.83 -0.21 1.62 -0.20 -0.28 1159.974 4054.02 7452.05
2.45 994.60 4.38 9.86 5.43 0.80 -0.74 -0.26 1.62 -0.24 -0.27 1160.471 4054.02 7452.05
2.45 994.60 -10.32 -6.14 -3.36 0.57 -0.61 -0.25 1.63 -0.25 -0.27 1160.976 4054.02 7452.05
2.43 994.60 -6.91 5.16 -5.30 0.50 -0.47 -0.16 1.62 -0.27 -0.29 1161.476 4054.02 7452.05
1.93 994.66 18.23 -15.00 -5.50 0.67 -0.59 -0.16 1.61 -0.27 -0.26 1161.978 4054.02 7452.05
2.25 994.62 -2.10 -3.76 10.05 0.87 -0.56 -0.26 1.62 -0.28 -0.28 1162.478 4054.02 7452.04
1.93 994.66 25.33 37.28 5.50 0.90 -0.77 -0.3 1.61 -0.28 -0.27 1162.978 4054.02 7452.04
2.21 994.63 -7.88 -5.19 11.91 0.90 -0.68 -0.31 1.62 -0.27 -0.28 1163.481 4054.02 7452.04
1.96 994.66 -1.08 -8.10 -24.12 0.71 -0.59 -0.25 1.61 -0.30 -0.27 1163.982 4054.02 7452.04
2.43 994.60 -3.19 -5.75 -0.68 0.49 -0.47 -0.17 1.62 -0.28 -0.27 1164.482 4054.02 7452.04
2.17 994.63 -8.50 -6.99 0.22 0.62 -0.51 -0.18 1.61 -0.33 -0.27 1164.982 4054.02 7452.04
2.08 994.65 20.77 19.42 -6.94 0.79 -0.63 -0.23 1.61 -0.29 -0.26 1165.485 4054.02 7452.04
2.89 994.55 1.02 -11.01 4.97 0.98 -0.79 -0.33 1.61 -0.29 -0.29 1165.984 4054.02 7452.04
2.78 994.56 6.05 5.99 -1.35 0.68 -0.60 -0.38 1.62 -0.28 -0.30 1166.484 4054.02 7452.04
1.90 994.67 -0.52 7.67 -4.72 0.61 -0.56 -0.28 1.61 -0.28 -0.28 1166.986 4054.02 7452.04
2.50 994.60 -20.01 -12.93 -3.96 0.75 -0.30 -0.21 1.61 -0.34 -0.30 1167.491 4054.02 7452.04
2.51 994.59 5.99 12.06 -0.71 0.78 -0.71 -0.33 1.61 -0.33 -0.27 1167.988 4054.02 7452.04
2.48 994.60 11.89 -16.27 -17.76 0.63 -0.56 -0.19 1.62 -0.27 -0.29 1168.492 4054.02 7452.04
2.07 994.65 24.68 14.68 -17.50 0.71 -0.46 -0.19 1.63 -0.28 -0.33 1168.992 4054.02 7452.04
1.99 994.66 59.07 7.95 -34.55 0.89 -0.47 -0.12 1.62 -0.14 -0.27 1169.492 4054.02 7452.04
2.79 994.56 -25.88 -49.36 -19.59 1.20 -1.10 -0.17 1.60 -0.01 -0.31 1169.996 4054.02 7452.04
1.90 994.67 61.28 -16.39 -3.64 0.91 -0.56 0.05 1.61 -0.01 -0.37 1170.496 4054.02 7452.04
2.38 994.61 28.27 46.01 -17.92 0.90 -0.55 0.03 1.57 0.04 -0.27 1170.997 4054.02 7452.04
2.06 994.65 7.46 2.99 -9.01 0.88 -0.45 -0.06 1.55 0.03 -0.20 1171.494 4054.02 7452.04
2.11 994.64 -13.63 -26.12 5.28 0.86 -0.76 0.01 1.49 0.09 -0.17 1171.999 4054.02 7452.04
2.06 994.65 -10.01 6.57 -5.62 0.74 -0.64 0.07 1.51 0.07 -0.17 1172.499 4054.02 7452.04
2.11 994.64 0.84 4.60 -3.46 0.74 -0.69 0.06 1.49 0.08 -0.16 1172.999 4054.02 7452.04
2.03 994.65 -1.13 0.55 0.25 0.71 -0.68 0.1 1.49 0.08 -0.16 1173.499 4054.02 7452.04
2.27 994.62 5.03 0.95 -2.41 0.71 -0.68 0.11 1.48 0.09 -0.17 1174.0 4054.02 7452.04
1.95 994.66 5.41 1.05 -0.99 0.70 -0.70 0.1 1.48 0.10 -0.16 1174.501 4054.02 7452.04
2.08 994.65 3.40 -1.58 -2.51 0.69 -0.69 0.1 1.47 0.10 -0.16 1175.004 4054.02 7452.04
2.39 994.61 2.31 -0.76 -0.48 0.70 -0.69 0.1 1.47 0.10 -0.14 1175.504 4054.02 7452.04
2.06 994.65 0.76 1.14 1.29 0.70 -0.70 0.11 1.47 0.10 -0.15 1176.003 4054.02 7452.04
1.97 994.66 1.55 1.55 -1.40 0.69 -0.70 0.12 1.47 0.10 -0.15 1176.505 4054.02 7452.04
1.77 994.68 3.40 -0.73 -13.03 0.69 -0.69 0.14 1.45 0.12 -0.14 1177.009 4054.02 7452.04
1.60 994.70 8.03 11.65 -1.52 0.59 -0.73 0.16 1.45 0.12 -0.14 1177.508 4054.02 7452.04
2.12 994.64 25.26 -2.02 0.88 0.70 -0.85 0.04 1.45 0.09 -0.13 1178.009 4054.02 7452.04
2.52 994.59 9.96 0.66 -13.09 0.70 -0.62 0.02 1.38 0.08 -0.05 1178.51 4054.02 7452.04
2.06 994.65 6.00 5.72 -9.47 0.66 -0.77 0.12 1.37 0.08 -0.04 1179.011 4054.02 7452.04
1.93 994.66 3.16 0.89 -1.91 0.64 -0.74 0.09 1.35 0.08 -0.03 1179.511 4054.02 7452.04
2.31 994.62 3.71 -1.43 -3.61 0.64 -0.75 0.11 1.34 0.08 -0.03 1180.013 4054.02 7452.04
2.28 994.62 2.77 0.68 -0.03 0.64 -0.75 0.11 1.34 0.08 -0.02 1180.513 4054.02 7452.04
2.20 994.63 2.89 -0.11 -0.72 0.64 -0.75 0.11 1.34 0.08 -0.03 1181.016 4054.02 7452.04
1.80 994.68 3.82 -0.77 0.49 0.65 -0.74 0.11 1.34 0.08 -0.03 1181.515 4054.02 7452.04
2.06 994.65 3.64 1.01 1.04 0.65 -0.74 0.1 1.34 0.08 -0.03 1182.015 4054.02 7452.04
1.80 994.68 1.25 2.14 0.30 0.64 -0.74 0.09 1.34 0.08 -0.03 1182.516 4054.02 7452.04
1.60 994.70 0.56 0.87 1.65 0.64 -0.74 0.09 1.33 0.07 -0.02 1183.017 4054.02 7452.04
1.81 994.68 2.50 -0.31 0.24 0.64 -0.76 0.09 1.33 0.07 -0.02 1183.519 4054.02 7452.04
2.38 994.61 1.37 1.87 0.43 0.61 -0.53 0.17 1.33 0.08 -0.02 1184.019 4054.02 7452.04
1.63 994.70 1.94 -0.15 -0.93 0.63 -0.76 0.1 1.33 0.07 -0.03 1184.522 4054.02 7452.04
1.91 994.67 27.82 -1.08 -23.29 0.62 -0.61 0.16 1.33 0.07 -0.02 1185.026 4054.02 7452.04
1.88 994.67 18.92 3.94 -5.63 0.71 -0.66 0.04 1.32 0.03 -0.00 1185.524 4054.02 7452.04
1.52 994.71 23.49 -12.39 -14.67 0.71 -0.74 0.01 1.31 -0.03 0.02 1186.028 4054.02 7452.04
1.72 994.69 0.63 -3.89 -0.88 0.69 -0.67 0.05 1.30 -0.01 0.01 1186.526 4054.02 7452.04
1.77 994.68 2.66 4.16 -7.01 0.63 -0.76 0.08 1.29 -0.02 0.03 1187.026 4054.02 7452.04
1.66 994.70 -3.96 2.45 -0.59 0.60 -0.77 0.12 1.27 -0.00 0.04 1187.528 4054.02 7452.04
2.16 994.64 8.64 -0.28 0.11 0.60 -0.78 0.14 1.27 -0.00 0.03 1188.028 4054.02 7452.04
1.87 994.67 4.99 0.34 -1.14 0.60 -0.79 0.1 1.27 -0.02 0.04 1188.53 4054.02 7452.04
1.61 994.70 2.70 -0.60 0.19 0.61 -0.78 0.1 1.27 -0.03 0.03 1189.031 4054.02 7452.04
1.76 994.68 3.12 -0.24 -0.52 0.61 -0.78 0.1 1.27 -0.02 0.03 1189.533 4054.02 7452.04
1.81 994.68 2.84 -0.27 0.14 0.61 -0.77 0.1 1.27 -0.02 0.04 1190.033 4054.02 7452.04
1.76 994.68 2.36 0.45 0.55 0.62 -0.77 0.1 1.28 -0.02 0.04 1190.534 4054.02 7452.04
1.70 994.69 2.51 0.11 -0.19 0.62 -0.76 0.1 1.28 -0.02 0.04 1191.035 4054.02 7452.04
2.13 994.64 1.40 0.25 0.53 0.61 -0.77 0.11 1.28 -0.02 0.03 1191.535 4054.02 7452.04
1.87 994.67 3.89 0.45 -0.58 0.62 -0.77 0.1 1.28 -0.02 0.04 1192.037 4054.02 7452.04
1.98 994.66 2.34 0.11 0.69 0.62 -0.77 0.1 1.27 -0.02 0.04 1192.538 4054.02 7452.04
1.90 994.67 2.63 -0.30 0.30 0.62 -0.77 0.1 1.28 -0.03 0.03 1193.039 4054.02 7452.04
2.51 994.60 1.41 0.75 1.12 0.62 -0.77 0.11 1.28 -0.03 0.04 1193.539 4054.02 7452.04
1.65 994.70 3.58 0.88 -0.28 0.62 -0.76 0.11 1.28 -0.03 0.03 1194.041 4054.02 7452.04
1.94 994.66 2.84 -0.06 0.06 0.62 -0.77 0.1 1.28 -0.03 0.04 1194.543 4054.02 7452.04
1.74 994.69 1.23 0.66 0.98 0.62 -0.76 0.11 1.27 -0.02 0.03 1195.042 4054.02 7452.04
1.66 994.69 2.92 0.15 0.36 0.62 -0.76 0.11 1.28 -0.02 0.03 1195.543 4054.02 7452.04
2.05 994.65 2.69 0.45 -0.03 0.62 -0.76 0.11 1.28 -0.03 0.04 1196.045 4054.02 7452.04
1.63 994.70 2.69 -0.09 0.48 0.62 -0.77 0.1 1.27 -0.02 0.04 1196.547 4054.02 7452.04
1.93 994.66 -10.19 -0.37 8.32 0.58 -0.75 0.12 1.28 -0.02 0.04 1197.049 4054.02 7452.04
2.16 994.64 -15.34 4.51 21.97 0.61 -0.78 0.15 1.27 0.03 0.01 1197.549 4054.02 7452.04
1.91 994.67 3.76 4.46 1.56 0.59 -0.75 0.19 1.28 0.07 -0.00 1198.048 4054.02 7452.04
1.30 994.74 25.17 -5.43 -22.25 0.59 -0.80 0.13 1.26 0.03 0.02 1198.553 4054.02 7452.04
1.63 994.70 2.91 0.06 0.20 0.59 -0.78 0.13 1.26 0.00 0.04 1199.049 4054.02 7452.04
2.25 994.62 3.11 0.03 -0.27 0.59 -0.78 0.13 1.26 0.00 0.03 1199.551 4054.02 7452.04
2.33 994.62 7.15 1.01 -2.07 0.59 -0.78 0.13 1.26 0.00 0.03 1200.052 4054.02 7452.04
1.94 994.66 3.34 -0.17 0.44 0.59 -0.79 0.12 1.26 -0.01 0.04 1200.555 4054.02 7452.04
1.59 994.70 1.45 -0.90 -2.08 0.60 -0.79 0.12 1.26 -0.00 0.03 1201.056 4054.02 7452.04
1.19 994.75 -0.29 -0.86 1.74 0.60 -0.79 0.14 1.26 0.00 0.04 1201.556 4054.02 7452.04
1.91 994.67 3.77 0.09 -0.66 0.59 -0.78 0.14 1.26 0.01 0.03 1202.056 4054.02 7452.04
2.05 994.65 5.69 2.09 0.05 0.59 -0.79 0.13 1.26 0.00 0.03 1202.556 4054.02 7452.04
1.44 994.72 1.15 -6.10 -0.34 0.59 -0.78 0.11 1.26 -0.02 0.04 1203.06 4054.02 7452.04
1.69 994.69 4.25 0.76 1.70 0.61 -0.77 0.12 1.27 -0.01 0.04 1203.559 4054.02 7452.04
2.16 994.64 0.58 -0.67 0.17 0.61 -0.80 0.11 1.27 -0.01 0.03 1204.061 4054.02 7452.04
1.86 994.67 0.75 2.23 -0.60 0.60 -0.80 0.12 1.26 -0.02 0.04 1204.562 4054.02 7452.04
1.42 994.72 0.41 1.05 2.46 0.60 -0.78 0.13 1.26 -0.01 0.04 1205.062 4054.02 7452.04
1.98 994.66 1.81 0.46 -0.46 0.60 -0.79 0.12 1.27 -0.01 0.04 1205.564 4054.02 7452.04
1.62 994.70 1.65 1.48 2.31 0.60 -0.78 0.13 1.27 0.00 0.04 1206.064 4054.02 7452.04
1.78 994.68 0.61 1.44 1.01 0.59 -0.78 0.14 1.25 0.01 0.04 1206.565 4054.02 7452.04
2.19 994.63 2.21 0.73 -0.22 0.58 -0.79 0.14 1.26 0.00 0.03 1207.067 4054.02 7452.04
1.66 994.70 1.65 3.06 1.01 0.59 -0.79 0.14 1.26 0.00 0.03 1207.567 4054.02 7452.04
2.03 994.65 5.26 -1.44 -3.17 0.59 -0.78 0.13 1.26 -0.01 0.05 1208.072 4054.02 7452.04
1.72 994.69 1.56 0.97 1.72 0.59 -0.79 0.13 1.26 -0.01 0.04 1208.57 4054.02 7452.04
2.19 994.63 -1.45 -3.06 2.99 0.60 -0.78 0.13 1.26 -0.01 0.05 1209.073 4054.02 7452.04
1.89 994.67 2.84 0.84 1.09 0.60 -0.78 0.13 1.27 0.00 0.04 1209.571 4054.02 7452.04
2.28 994.62 1.78 4.53 1.67 0.60 -0.75 0.13 1.26 -0.00 0.04 1210.074 4054.02 7452.04
1.91 994.67 0.64 -1.78 1.46 0.59 -0.79 0.11 1.26 -0.00 0.04 1210.575 4054.02 7452.04
1.81 994.68 -6.46 2.09 13.82 0.59 -0.79 0.11 1.26 0.01 0.04 1211.076 4054.02 7452.04
2.34 994.61 -8.97 1.24 14.06 0.60 -0.78 0.12 1.28 0.04 0.02 1211.577 4054.02 7452.04
2.22 994.63 1.04 1.15 2.04 0.59 -0.78 0.12 1.28 0.05 0.01 1212.077 4054.02 7452.04
1.59 994.70 3.21 2.20 -2.40 0.58 -0.79 0.13 1.27 0.05 0.01 1212.578 4054.02 7452.04
2.07 994.65 1.27 0.21 1.56 0.59 -0.79 0.11 1.27 0.05 0.01 1213.078 4054.02 7452.04
2.21 994.63 -1.92 1.28 8.62 0.59 -0.80 0.11 1.28 0.06 0.01 1213.58 4054.02 7452.04
1.69 994.69 -7.02 3.54 13.27 0.56 -0.79 0.14 1.29 0.07 0.00 1214.083 4054.02 7452.04
2.59 994.58 -15.05 0.31 21.76 0.61 -0.76 0.11 1.32 0.09 -0.03 1214.585 4054.02 7452.04
1.59 994.70 -11.95 -18.58 25.23 0.63 -0.86 -0.06 1.40 0.07 -0.07 1215.087 4054.02 7452.04
2.33 994.62 -18.65 1.10 6.96 0.65 -0.70 0.1 1.42 0.10 -0.10 1215.586 4054.02 7452.04
2.45 994.60 -6.37 4.19 4.38 0.69 -0.68 0.18 1.42 0.13 -0.12 1216.087 4054.02 7452.04
2.03 994.65 15.30 -1.92 -10.33 0.66 -0.72 0.15 1.42 0.12 -0.11 1216.59 4054.02 7452.04
2.07 994.65 2.59 1.29 1.09 0.67 -0.71 0.11 1.41 0.11 -0.09 1217.087 4054.02 7452.04
1.93 994.66 0.99 2.82 2.01 0.67 -0.73 0.12 1.40 0.11 -0.09 1217.588 4054.02 7452.04
2.25 994.63 3.57 2.69 -0.53 0.67 -0.72 0.12 1.40 0.11 -0.08 1218.091 4054.02 7452.04
2.40 994.61 -1.52 0.63 3.63 0.67 -0.71 0.12 1.40 0.11 -0.09 1218.591 4054.02 7452.04
2.09 994.64 0.86 2.15 3.01 0.67 -0.72 0.12 1.41 0.11 -0.10 1219.091 4054.02 7452.04
2.43 994.60 2.21 0.05 -0.41 0.68 -0.72 0.12 1.41 0.11 -0.10 1219.593 4054.02 7452.04
1.46 994.72 1.28 0.29 0.37 0.67 -0.72 0.12 1.41 0.11 -0.10 1220.093 4054.02 7452.04
2.39 994.61 2.21 0.18 0.78 0.67 -0.72 0.12 1.42 0.11 -0.10 1220.594 4054.02 7452.04
2.59 994.59 3.12 -0.01 0.34 0.68 -0.72 0.12 1.41 0.11 -0.09 1221.096 4054.02 7452.04
2.40 994.61 3.63 0.01 -0.61 0.67 -0.72 0.12 1.41 0.11 -0.10 1221.597 4054.02 7452.04
1.89 994.67 1.75 -0.57 0.45 0.67 -0.73 0.12 1.41 0.12 -0.10 1222.098 4054.02 7452.04
2.04 994.65 2.40 0.52 0.52 0.68 -0.73 0.12 1.41 0.11 -0.10 1222.598 4054.02 7452.04
2.49 994.60 1.69 0.81 1.12 0.67 -0.73 0.11 1.41 0.11 -0.10 1223.099 4054.02 7452.04
1.90 994.67 0.64 0.48 3.04 0.68 -0.74 0.12 1.42 0.11 -0.11 1223.601 4054.02 7452.04
2.87 994.55 3.23 5.75 -0.50 0.69 -0.71 0.12 1.42 0.12 -0.11 1224.103 4054.02 7452.04
2.28 994.62 0.13 2.21 3.04 0.67 -0.72 0.12 1.41 0.12 -0.10 1224.603 4054.02 7452.04
2.35 994.61 1.12 -3.40 2.49 0.65 -0.73 0.11 1.42 0.12 -0.10 1225.105 4054.02 7452.04
1.98 994.66 1.32 1.74 1.23 0.67 -0.71 0.15 1.44 0.11 -0.12 1225.606 4054.02 7452.04
2.09 994.64 13.86 -0.03 -8.24 0.66 -0.73 0.11 1.42 0.11 -0.10 1226.109 4054.02 7452.04
2.03 994.65 0.83 -0.50 1.86 0.66 -0.73 0.12 1.42 0.11 -0.10 1226.608 4054.02 7452.04
2.29 994.62 2.93 0.99 -0.31 0.67 -0.73 0.12 1.42 0.11 -0.12 1227.109 4054.02 7452.04
1.74 994.69 2.42 -0.27 0.95 0.67 -0.72 0.12 1.42 0.11 -0.11 1227.611 4054.02 7452.04
1.82 994.68 2.68 0.11 0.23 0.67 -0.72 0.12 1.42 0.11 -0.10 1228.11 4054.02 7452.04
2.98 994.54 3.16 0.35 0.45 0.67 -0.71 0.12 1.42 0.11 -0.10 1228.611 4054.02 7452.04
2.37 994.61 1.19 -0.09 -0.98 0.67 -0.69 0.14 1.42 0.11 -0.10 1229.114 4054.02 7452.04
2.04 994.65 -0.64 2.88 2.63 0.68 -0.72 0.12 1.42 0.11 -0.10 1229.615 4054.02 7452.04
2.56 994.59 0.93 0.26 2.56 0.66 -0.73 0.12 1.42 0.11 -0.10 1230.114 4054.02 7452.04
2.13 994.64 1.61 2.50 0.58 0.66 -0.73 0.13 1.43 0.11 -0.11 1230.615 4054.02 7452.04
2.01 994.65 3.74 -0.38 -0.88 0.67 -0.73 0.12 1.43 0.11 -0.10 1231.118 4054.02 7452.04
2.04 994.65 1.62 0.13 2.06 0.67 -0.72 0.12 1.43 0.11 -0.11 1231.618 4054.02 7452.04
1.96 994.66 2.56 -0.07 -0.10 0.67 -0.72 0.12 1.42 0.11 -0.10 1232.12 4054.02 7452.04
1.99 994.66 2.14 -0.01 0.25 0.67 -0.73 0.12 1.42 0.11 -0.11 1232.62 4054.02 7452.04
2.12 994.64 3.59 0.03 -0.52 0.67 -0.73 0.12 1.42 0.12 -0.10 1233.121 4054.02 7452.04
1.81 994.68 2.49 -1.40 1.01 0.66 -0.72 0.12 1.42 0.11 -0.11 1233.623 4054.02 7452.04
1.96 994.66 3.40 0.01 -0.38 0.68 -0.72 0.12 1.42 0.11 -0.11 1234.123 4054.02 7452.04
2.45 994.60 5.45 -1.04 -1.79 0.67 -0.71 0.12 1.42 0.12 -0.11 1234.625 4054.02 7452.04
1.96 994.66 1.09 1.18 1.53 0.68 -0.71 0.12 1.42 0.11 -0.11 1235.124 4054.02 7452.04
2.24 994.63 1.17 -0.71 1.44 0.69 -0.73 0.11 1.43 0.11 -0.11 1235.627 4054.02 7452.04
2.21 994.63 1.40 -2.47 -0.47 0.68 -0.74 0.12 1.42 0.12 -0.12 1236.128 4054.02 7452.04
2.26 994.62 2.23 1.82 0.70 0.68 -0.72 0.12 1.42 0.12 -0.11 1236.627 4054.02 7452.04
2.04 994.65 1.88 1.30 0.71 0.68 -0.72 0.12 1.42 0.12 -0.12 1237.128 4054.02 7452.04
2.07 994.65 3.17 0.05 -0.31 0.67 -0.70 0.12 1.42 0.11 -0.10 1237.63 4054.02 7452.04
1.85 994.67 3.06 -1.96 -0.03 0.67 -0.72 0.12 1.42 0.11 -0.11 1238.132 4054.02 7452.04
2.37 994.61 2.06 -1.11 0.03 0.67 -0.72 0.12 1.42 0.11 -0.11 1238.632 4054.02 7452.04
1.93 994.66 2.17 0.52 -0.17 0.67 -0.72 0.12 1.42 0.12 -0.11 1239.133 4054.02 7452.04
1.76 994.68 2.80 -1.69 0.45 0.67 -0.72 0.12 1.42 0.12 -0.11 1239.634 4054.02 7452.04
1.96 994.66 5.31 -0.79 -0.20 0.69 -0.70 0.12 1.42 0.11 -0.11 1240.136 4054.02 7452.04
2.04 994.65 2.67 -1.78 0.80 0.69 -0.71 0.13 1.41 0.12 -0.11 1240.636 4054.02 7452.04
2.07 994.65 11.37 2.26 2.50 0.70 -0.74 0.08 1.43 0.11 -0.10 1241.138 4054.02 7452.04
2.34 994.62 0.33 0.33 0.56 0.65 -0.71 0.09 1.41 0.11 -0.09 1241.638 4054.02 7452.04
2.21 994.63 11.56 -3.14 -6.15 0.63 -0.74 0.12 1.39 0.11 -0.08 1242.142 4054.02 7452.04
2.27 994.62 5.57 0.11 -2.15 0.61 -0.77 0.12 1.38 0.10 -0.06 1242.641 4054.02 7452.04
2.37 994.61 -21.91 3.74 25.02 0.52 -0.61 -0.03 1.38 0.08 -0.04 1243.144 4054.02 7452.04
1.68 994.69 -2.63 6.38 8.50 0.53 -0.80 0.12 1.36 0.11 -0.06 1243.643 4054.02 7452.04
2.15 994.64 4.43 -0.20 0.52 0.53 -0.83 0.1 1.37 0.11 -0.06 1244.144 4054.02 7452.04
2.08 994.64 18.27 -5.04 -21.26 0.60 -0.99 0.1 1.37 0.09 -0.04 1244.648 4054.02 7452.04
2.30 994.62 0.71 -0.80 0.03 0.54 -0.80 0.1 1.35 0.11 -0.05 1245.147 4054.02 7452.04
2.34 994.62 9.17 -2.79 -5.28 0.55 -0.81 0.12 1.35 0.11 -0.05 1245.648 4054.02 7452.04
2.24 994.63 5.92 5.65 2.18 0.59 -0.78 0.08 1.35 0.10 -0.04 1246.147 4054.02 7452.04
1.91 994.67 3.35 -0.26 -0.30 0.57 -0.81 0.09 1.35 0.10 -0.05 1246.65 4054.02 7452.04
2.48 994.60 0.53 44.27 10.23 0.45 -0.91 0.12 1.34 0.11 -0.05 1247.152 4054.02 7452.04
1.77 994.68 -3.19 9.93 -0.42 0.48 -0.87 0.15 1.31 0.12 -0.04 1247.652 4054.02 7452.04
2.46 994.60 3.00 -1.46 1.07 0.43 -0.90 0.14 1.30 0.13 -0.04 1248.152 4054.02 7452.04
2.21 994.63 4.96 5.96 -0.62 0.43 -0.89 0.14 1.30 0.13 -0.04 1248.653 4054.02 7452.04
2.27 994.62 -0.57 -7.56 10.13 0.34 -0.84 0.06 1.28 0.11 -0.02 1249.157 4054.02 7452.04
2.33 994.62 -2.01 1.88 -3.39 0.35 -0.94 0.07 1.25 0.09 -0.00 1249.656 4054.02 7452.04
2.30 994.62 0.67 -0.76 2.14 0.33 -0.93 0.07 1.26 0.10 -0.01 1250.156 4054.02 7452.04
2.31 994.62 2.34 1.07 0.35 0.34 -0.93 0.08 1.25 0.09 0.00 1250.655 4054.02 7452.04
2.31 994.62 2.40 -0.84 1.04 0.33 -0.94 0.07 1.24 0.10 -0.00 1251.159 4054.02 7452.04
2.30 994.62 2.00 -0.94 1.09 0.33 -0.93 0.07 1.25 0.10 -0.01 1251.659 4054.02 7452.04
2.19 994.63 2.28 0.57 -0.75 0.34 -0.93 0.07 1.25 0.10 -0.00 1252.16 4054.02 7452.04
2.36 994.61 2.71 -0.58 0.61 0.34 -0.93 0.07 1.25 0.09 0.00 1252.66 4054.02 7452.04
2.76 994.56 2.25 0.37 0.60 0.34 -0.93 0.07 1.25 0.09 -0.00 1253.161 4054.02 7452.04
2.85 994.56 2.52 0.52 0.68 0.34 -0.93 0.07 1.26 0.10 -0.01 1253.662 4054.02 7452.04
2.15 994.64 2.14 0.22 0.44 0.34 -0.93 0.07 1.26 0.10 -0.00 1254.171 4054.02 7452.04
2.45 994.60 2.39 1.26 0.86 0.34 -0.93 0.07 1.25 0.09 -0.01 1254.664 4054.02 7452.04
2.07 994.65 2.34 -0.04 0.30 0.34 -0.93 0.07 1.25 0.09 0.00 1255.19 4054.02 7452.04
2.05 994.65 2.34 0.06 0.68 0.34 -0.93 0.07 1.25 0.09 0.00 1255.665 4054.02 7452.04
2.08 994.65 2.74 0.54 -0.22 0.34 -0.93 0.07 1.25 0.09 0.00 1256.167 4054.02 7452.04
2.20 994.63 2.38 -0.08 0.25 0.34 -0.93 0.06 1.25 0.09 0.00 1256.668 4054.02 7452.04
2.31 994.62 2.64 -1.10 -0.84 0.34 -0.94 0.06 1.25 0.09 -0.01 1257.194 4054.02 7452.04
2.37 994.61 2.04 0.03 2.24 0.35 -0.93 0.07 1.25 0.09 0.01 1257.669 4054.02 7452.04
2.31 994.62 3.05 0.60 -0.41 0.35 -0.93 0.07 1.26 0.09 -0.00 1258.172 4054.02 7452.04
2.06 994.65 2.81 0.48 0.69 0.34 -0.93 0.07 1.25 0.09 0.00 1258.672 4054.02 7452.04
1.93 994.66 1.75 1.15 0.93 0.34 -0.93 0.05 1.25 0.09 -0.00 1259.174 4054.02 7452.04
2.35 994.61 2.11 0.03 0.32 0.34 -0.94 0.07 1.25 0.09 0.01 1259.674 4054.02 7452.04
2.52 994.59 2.04 0.31 0.31 0.35 -0.93 0.07 1.26 0.09 0.00 1260.175 4054.02 7452.04
2.13 994.64 2.60 0.31 1.21 0.34 -0.93 0.07 1.25 0.09 0.00 1260.677 4054.02 7452.04
2.52 994.59 2.50 0.54 0.54 0.33 -0.93 0.06 1.25 0.10 0.00 1261.243 4054.02 7452.04
2.32 994.62 2.58 0.13 -0.08 0.34 -0.94 0.06 1.25 0.09 0.00 1261.679 4054.02 7452.04
2.08 994.65 2.18 0.03 0.52 0.34 -0.93 0.07 1.25 0.09 -0.00 1262.18 4054.02 7452.04
2.30 994.62 1.39 0.19 0.50 0.34 -0.93 0.07 1.26 0.10 -0.00 1262.682 4054.02 7452.04
2.39 994.61 2.33 0.48 -0.16 0.34 -0.93 0.08 1.25 0.10 -0.00 1263.183 4054.02 7452.04
2.15 994.64 2.12 1.03 1.77 0.35 -0.94 0.09 1.25 0.09 -0.00 1263.683 4054.02 7452.04
2.46 994.60 2.28 -2.52 0.04 0.34 -0.94 0.07 1.24 0.09 -0.00 1264.24 4054.02 7452.04
2.66 994.58 2.31 -2.24 -1.05 0.34 -0.92 0.07 1.25 0.10 0.01 1264.687 4054.02 7452.04
2.33 994.62 2.14 -0.66 1.10 0.34 -0.93 0.07 1.25 0.10 0.00 1265.206 4054.02 7452.04
1.92 994.66 1.87 0.31 1.19 0.34 -0.93 0.08 1.25 0.10 0.01 1265.686 4054.02 7452.04
2.66 994.58 2.23 0.06 0.85 0.34 -0.93 0.08 1.26 0.10 0.01 1266.211 4054.02 7452.04
2.30 994.62 7.53 2.58 9.74 0.27 -0.84 0.03 1.24 0.09 0.01 1266.689 4054.02 7452.04
2.20 994.63 5.77 2.42 0.88 0.34 -0.97 0.13 1.25 0.11 -0.01 1267.246 4054.02 7452.04
1.90 994.67 5.60 2.92 -4.41 0.31 -0.93 0.1 1.25 0.11 -0.02 1267.692 4054.02 7452.04
2.03 994.65 3.58 -6.50 -0.94 0.30 -0.91 0.12 1.23 0.11 -0.01 1268.247 4054.02 7452.04
2.05 994.65 1.24 -0.55 0.81 0.32 -0.95 0.1 1.24 0.11 -0.00 1268.695 4054.02 7452.04
2.48 994.60 1.96 -0.38 2.74 0.31 -0.94 0.1 1.24 0.11 -0.01 1269.25 4054.02 7452.04
2.52 994.59 -0.26 0.31 2.45 0.30 -0.95 0.11 1.24 0.11 -0.01 1269.696 4054.02 7452.04
2.31 994.62 4.53 1.35 -4.15 0.29 -0.94 0.11 1.23 0.11 -0.01 1270.197 4054.02 7452.04
1.89 994.67 2.14 -0.64 0.40 0.29 -0.94 0.11 1.23 0.11 -0.00 1270.699 4054.02 7452.04
2.67 994.58 2.85 0.39 -0.56 0.30 -0.94 0.11 1.23 0.11 -0.01 1271.199 4054.02 7452.04
2.67 994.58 2.83 6.61 -1.01 0.32 -0.95 0.1 1.23 0.12 -0.00 1271.7 4054.02 7452.04
2.09 994.64 9.84 96.42 -29.37 0.03 -1.09 0.05 1.13 0.12 0.02 1272.202 4054.02 7452.04
2.54 994.59 -0.97 3.46 -2.29 -0.08 -0.99 -0.01 1.04 0.06 0.03 1272.702 4054.02 7452.04
2.03 994.65 -8.57 3.53 -11.00 -0.06 -1.00 0.06 1.04 0.09 0.02 1273.228 4054.02 7452.04
2.21 994.63 6.03 3.57 24.89 -0.10 -1.00 0.02 1.02 0.09 0.02 1273.704 4054.02 7452.04
2.44 994.60 3.08 -1.44 -12.75 -0.11 -0.99 -0.0 1.04 0.08 0.01 1274.228 4054.02 7452.04
2.01 994.65 -6.71 0.74 -20.53 -0.13 -1.00 0.1 1.01 0.08 0.02 1274.708 4054.02 7452.04
2.46 994.60 -1.75 -1.22 1.95 -0.15 -0.98 0.12 1.00 0.09 0.00 1275.208 4054.02 7452.04
2.06 994.65 9.48 7.23 11.82 -0.12 -0.98 0.06 0.99 0.09 0.01 1275.708 4054.02 7452.04
2.30 994.62 3.47 2.60 5.66 -0.09 -0.99 0.08 1.02 0.09 0.01 1276.265 4054.02 7452.04
2.87 994.55 1.03 1.44 -4.13 -0.10 -0.99 0.08 1.01 0.09 0.00 1276.711 4054.02 7452.04
2.46 994.60 3.07 -3.57 -0.40 -0.10 -0.99 0.08 1.01 0.09 0.01 1277.213 4054.02 7452.04
1.97 994.66 1.86 0.53 -1.30 -0.09 -0.99 0.08 1.01 0.09 0.01 1277.713 4054.02 7452.04
2.40 994.61 -3.01 1.78 -42.64 -0.09 -0.99 0.13 0.99 0.09 0.01 1278.289 4054.02 7452.04
2.12 994.64 -2.81 -0.17 -17.67 -0.04 -1.06 0.04 0.93 0.03 0.01 1278.718 4054.02 7452.04
2.46 994.60 5.73 9.27 28.00 -0.12 -0.99 0.1 0.95 0.06 0.01 1279.216 4054.02 7452.04
2.55 994.59 2.76 -0.02 4.19 -0.11 -0.99 0.09 0.96 0.08 0.00 1279.717 4054.02 7452.04
2.32 994.62 3.52 0.46 12.26 -0.11 -0.99 0.09 0.98 0.08 0.01 1280.226 4054.02 7452.04
2.55 994.59 3.54 0.63 2.70 -0.10 -0.99 0.09 0.99 0.08 0.02 1280.718 4054.02 7452.04
2.66 994.58 1.88 -0.69 -3.06 -0.10 -0.99 0.08 0.98 0.08 0.01 1281.243 4054.02 7452.04
2.61 994.58 3.92 0.73 6.58 -0.10 -0.99 0.08 0.99 0.08 0.00 1281.72 4054.02 7452.04
1.74 994.69 2.65 0.29 0.37 -0.09 -0.99 0.07 0.99 0.08 0.02 1282.32 4054.02 7452.04
1.91 994.67 2.21 -0.11 0.28 -0.10 -0.98 0.07 0.99 0.08 0.01 1282.723 4054.02 7452.04
2.70 994.57 2.63 1.29 1.96 -0.09 -0.98 0.07 0.99 0.08 0.01 1283.223 4054.02 7452.04
2.49 994.60 2.74 0.27 0.49 -0.09 -0.99 0.07 0.99 0.08 0.02 1283.724 4054.02 7452.04
2.88 994.55 2.24 0.25 0.74 -0.09 -0.99 0.07 1.00 0.08 0.02 1284.246 4054.02 7452.04
2.99 994.54 2.63 3.70 1.58 -0.10 -1.00 0.07 0.99 0.08 0.01 1284.726 4054.02 7452.04
2.45 994.60 2.37 2.88 3.47 -0.10 -1.01 0.07 1.00 0.09 0.02 1285.31 4054.02 7452.04
2.53 994.59 1.84 -0.84 -3.33 -0.09 -0.99 0.08 0.99 0.08 0.01 1285.73 4054.02 7452.04
2.45 994.60 2.61 0.03 2.76 -0.09 -0.99 0.07 1.00 0.08 0.02 1286.305 4054.02 7452.04
3.06 994.53 5.92 -2.04 -11.14 -0.08 -0.99 0.07 1.00 0.08 0.02 1286.733 4054.02 7452.04
2.23 994.63 14.18 -3.26 -38.68 -0.15 -1.02 -0.06 0.92 0.02 0.01 1287.311 4054.02 7452.04
2.31 994.62 10.36 -4.38 -24.96 -0.17 -0.96 -0.21 0.91 -0.07 0.02 1287.736 4054.02 7452.04
2.63 994.58 7.69 2.62 15.20 -0.19 -0.91 -0.28 0.93 -0.13 0.03 1288.323 4054.02 7452.04
2.64 994.58 -0.54 -15.28 0.35 -0.05 -0.84 -0.22 0.96 -0.10 0.04 1288.737 4054.02 7452.04
2.78 994.56 4.17 4.22 -1.78 -0.08 -0.95 -0.27 0.96 -0.11 0.04 1289.332 4054.02 7452.04
2.31 994.62 1.57 0.45 1.06 0.13 -1.37 -0.33 1.00 -0.11 0.05 1289.735 4054.02 7452.04
3.07 994.53 4.95 2.70 1.33 0.00 -0.97 -0.22 1.01 -0.11 0.06 1290.336 4054.02 7452.04
2.70 994.57 3.17 -0.28 -0.21 0.03 -0.96 -0.24 1.01 -0.11 0.06 1290.739 4054.02 7452.04
2.92 994.55 2.05 -0.64 1.59 0.04 -0.97 -0.23 1.02 -0.11 0.05 1291.261 4054.02 7452.04
2.65 994.58 1.84 0.97 0.93 0.05 -0.97 -0.22 1.02 -0.11 0.06 1291.739 4054.02 7452.04
3.09 994.53 2.42 0.15 0.45 0.05 -0.97 -0.22 1.02 -0.11 0.06 1292.25 4054.02 7452.04
2.79 994.56 1.77 -0.72 -0.09 0.05 -0.97 -0.22 1.02 -0.11 0.06 1292.743 4054.02 7452.04
2.50 994.60 1.50 -0.52 1.40 0.06 -0.97 -0.22 1.02 -0.11 0.07 1293.282 4054.02 7452.04
2.44 994.60 2.12 -0.19 0.85 0.07 -0.97 -0.21 1.03 -0.10 0.06 1293.745 4054.02 7452.04
2.44 994.60 2.22 0.19 0.58 0.07 -0.97 -0.21 1.02 -0.10 0.07 1294.343 4054.02 7452.04
2.82 994.56 2.47 -0.38 0.68 0.07 -0.97 -0.19 1.03 -0.10 0.05 1294.747 4054.02 7452.04
2.86 994.55 2.51 0.04 0.32 0.07 -0.97 -0.21 1.02 -0.10 0.06 1295.33 4054.02 7452.04
2.67 994.58 2.20 -0.38 0.20 0.07 -0.97 -0.2 1.02 -0.10 0.07 1295.75 4054.02 7452.04
2.38 994.61 2.12 0.25 0.63 0.08 -0.97 -0.22 1.03 -0.10 0.07 1296.306 4054.02 7452.04
2.25 994.63 2.28 0.03 0.22 0.08 -0.97 -0.2 1.03 -0.10 0.06 1296.75 4054.02 7452.04
2.80 994.56 2.57 0.79 0.59 0.08 -0.97 -0.2 1.03 -0.09 0.06 1297.351 4054.02 7452.04
3.01 994.53 1.86 0.43 0.63 0.08 -0.97 -0.2 1.03 -0.10 0.05 1297.753 4054.02 7452.04
2.36 994.61 2.49 0.72 0.16 0.07 -0.98 -0.19 1.03 -0.10 0.06 1298.279 4054.02 7452.04
2.01 994.65 5.45 0.04 -4.65 0.09 -0.99 -0.2 1.03 -0.10 0.06 1298.755 4054.02 7452.04
2.06 994.65 3.81 0.03 -0.25 0.08 -1.02 -0.21 1.03 -0.10 0.06 1299.355 4054.02 7452.04
3.15 994.52 22.71 24.43 -10.96 -0.02 -0.96 -0.28 0.99 -0.13 0.05 1299.762 4054.02 7452.04
2.19 994.63 2.29 18.79 -10.46 -0.10 -0.89 -0.33 0.93 -0.20 0.02 1300.359 4054.02 7452.04
2.62 994.58 -7.26 1.99 -4.52 -0.21 -0.90 -0.34 0.88 -0.20 -0.01 1300.762 4054.02 7452.04
3.17 994.52 11.34 7.95 -12.36 -0.20 -0.92 -0.31 0.88 -0.20 -0.01 1301.286 4054.02 7452.04
2.68 994.57 6.93 3.48 0.71 -0.20 -0.91 -0.33 0.88 -0.22 -0.02 1301.763 4054.02 7452.04
2.74 994.57 5.07 2.93 1.71 -0.17 -0.92 -0.35 0.89 -0.23 -0.01 1302.319 4054.02 7452.04
2.07 994.65 2.56 -1.02 0.17 -0.16 -0.92 -0.35 0.89 -0.23 -0.00 1302.765 4054.02 7452.04
3.04 994.53 2.52 2.93 -0.64 -0.18 -0.91 -0.35 0.90 -0.23 -0.00 1303.344 4054.02 7452.04
2.59 994.59 2.55 0.25 -1.29 -0.17 -0.92 -0.35 0.89 -0.23 -0.01 1303.768 4054.02 7452.04
2.36 994.61 0.88 0.57 -1.09 -0.18 -0.93 -0.34 0.89 -0.23 -0.01 1304.292 4054.02 7452.04
2.60 994.58 -7.39 -2.13 1.19 -0.16 -0.91 -0.3 0.89 -0.22 -0.01 1304.77 4054.02 7452.04
2.49 994.60 2.32 -1.40 -1.68 -0.17 -0.96 -0.19 0.89 -0.17 0.00 1305.347 4054.02 7452.04
2.29 994.62 3.02 0.19 0.25 -0.17 -0.96 -0.2 0.88 -0.17 0.00 1305.769 4054.02 7452.04
2.68 994.58 2.09 -0.81 0.17 -0.16 -0.96 -0.19 0.89 -0.16 0.01 1306.354 4054.02 7452.04
2.77 994.56 -0.03 -4.16 0.51 -0.12 -0.96 -0.16 0.91 -0.16 0.02 1306.773 4054.02 7452.04
2.78 994.56 0.18 -4.44 -0.25 -0.02 -1.01 -0.1 0.95 -0.14 0.04 1307.368 4054.02 7452.04
2.83 994.56 2.07 1.06 4.51 0.03 -1.00 -0.09 0.97 -0.12 0.05 1307.772 4054.02 7452.04
2.44 994.60 3.72 2.57 -1.09 0.02 -0.99 -0.09 0.97 -0.12 0.05 1308.355 4054.02 7452.04
2.74 994.57 1.07 -0.64 0.66 0.02 -1.00 -0.09 0.98 -0.12 0.04 1308.775 4054.02 7452.04
2.66 994.58 1.80 -0.38 -0.52 0.03 -0.99 -0.09 0.97 -0.12 0.04 1309.356 4054.02 7452.04
2.82 994.56 1.82 0.10 1.44 0.03 -0.98 -0.08 0.97 -0.12 0.05 1309.776 4054.02 7452.04
2.52 994.59 2.67 -0.38 0.51 0.03 -1.00 -0.09 0.97 -0.13 0.04 1310.359 4054.02 7452.04
2.58 994.59 2.67 -0.14 1.10 0.03 -1.00 -0.1 0.97 -0.12 0.04 1310.779 4054.02 7452.04
2.19 994.63 2.44 0.43 -0.64 0.04 -0.97 -0.06 0.97 -0.12 0.05 1311.339 4054.02 7452.04
2.92 994.55 2.07 -4.11 -2.94 0.04 -1.00 -0.06 0.98 -0.12 0.05 1311.783 4054.02 7452.04
2.29 994.62 4.46 2.00 2.29 0.04 -0.99 -0.08 0.98 -0.12 0.05 1312.377 4054.02 7452.04
2.49 994.60 2.09 1.19 1.50 0.04 -0.99 -0.09 0.98 -0.12 0.04 1312.783 4054.02 7452.04
2.29 994.62 2.54 -2.22 1.27 0.05 -0.99 -0.08 0.97 -0.12 0.04 1313.342 4054.02 7452.04
1.47 994.72 2.84 -0.27 -0.20 0.04 -0.99 -0.08 0.98 -0.12 0.05 1313.787 4054.02 7452.04
2.53 994.59 2.35 0.11 -0.05 0.05 -0.99 -0.09 0.98 -0.13 0.05 1314.343 4054.02 7452.04
2.57 994.59 1.01 0.11 1.40 0.05 -0.99 -0.08 0.98 -0.12 0.05 1314.787 4054.02 7452.04
2.80 994.56 2.64 -0.02 0.79 0.05 -0.99 -0.08 0.98 -0.12 0.05 1315.364 4054.02 7452.04
2.67 994.58 1.61 0.15 0.28 0.04 -0.99 -0.08 0.98 -0.12 0.05 1315.789 4054.02 7452.04
2.26 994.62 4.31 0.24 2.00 0.05 -0.99 -0.07 0.98 -0.11 0.05 1316.379 4054.02 7452.04
2.23 994.63 1.89 -0.04 -0.40 0.05 -0.99 -0.07 0.98 -0.11 0.06 1316.793 4054.02 7452.04
2.59 994.59 2.55 0.80 1.05 0.06 -0.99 -0.07 0.98 -0.11 0.06 1317.372 4054.02 7452.04
2.70 994.57 2.33 0.38 -0.38 0.05 -0.99 -0.07 0.98 -0.11 0.06 1317.794 4054.02 7452.04
2.04 994.65 2.75 0.11 0.63 0.05 -0.99 -0.09 0.98 -0.11 0.06 1318.365 4054.02 7452.04
2.43 994.60 2.14 0.09 2.32 0.05 -0.99 -0.07 0.99 -0.11 0.06 1318.795 4054.02 7452.04
2.82 994.56 3.10 0.18 -0.72 0.06 -0.99 -0.08 0.98 -0.11 0.06 1319.373 4054.02 7452.04
2.29 994.62 3.98 4.40 20.28 0.00 -1.02 -0.08 0.99 -0.10 0.05 1319.798 4054.02 7452.04
3.17 994.52 -3.92 -5.85 8.73 0.08 -0.95 -0.09 1.00 -0.08 0.06 1320.367 4054.02 7452.04
2.89 994.55 1.28 -2.69 14.31 0.14 -0.99 -0.07 1.02 -0.08 0.06 1320.801 4054.02 7452.04
2.57 994.59 5.64 5.17 3.41 0.09 -0.99 -0.04 1.02 -0.06 0.05 1321.376 4054.02 7452.04
2.51 994.59 1.52 -0.74 0.98 0.09 -0.99 -0.08 1.01 -0.07 0.06 1321.802 4054.02 7452.04
2.34 994.61 1.33 -1.19 -4.34 0.11 -0.99 -0.07 1.01 -0.06 0.06 1322.402 4054.02 7452.04
2.33 994.62 3.72 0.86 -1.24 0.09 -1.00 -0.05 1.01 -0.05 0.05 1322.804 4054.02 7452.04
2.67 994.58 1.71 0.04 1.83 0.09 -1.00 -0.05 1.02 -0.06 0.06 1323.385 4054.02 7452.04
2.68 994.57 1.48 -0.57 -2.88 0.10 -0.99 -0.06 1.01 -0.05 0.06 1323.807 4054.02 7452.04
2.72 994.57 0.44 0.26 1.29 0.09 -0.99 -0.06 1.01 -0.06 0.06 1324.408 4054.02 7452.04
2.20 994.63 -21.24 2.46 -10.40 0.01 -0.95 -0.12 0.97 -0.07 0.04 1324.811 4054.02 7452.04
2.47 994.60 30.27 3.99 1.29 -0.02 -0.91 0.03 0.93 0.00 0.01 1325.407 4054.02 7452.04
2.29 994.62 -1.99 -12.95 -10.83 0.08 -1.03 0.02 0.98 -0.04 0.03 1325.815 4054.02 7452.04
2.39 994.61 -2.09 3.72 -5.68 0.13 -1.04 -0.03 1.01 -0.07 0.05 1326.41 4054.02 7452.04
2.49 994.60 -13.64 5.40 59.26 0.06 -0.91 -0.03 0.98 -0.05 0.04 1326.814 4054.02 7452.04
2.75 994.57 -12.24 -9.73 22.48 0.09 -0.96 -0.01 1.03 0.06 0.03 1327.38 4054.02 7452.04
2.90 994.55 11.29 -15.81 10.34 0.01 -1.05 0.1 1.00 0.08 0.00 1327.817 4054.02 7452.04
3.00 994.54 -4.30 -3.85 -1.64 0.05 -0.99 0.07 1.03 0.09 0.02 1328.373 4054.02 7452.04
2.47 994.60 2.15 -0.63 -0.73 0.07 -0.99 0.09 1.04 0.09 0.01 1328.818 4054.02 7452.04
2.48 994.60 -1.67 29.69 -19.74 0.12 -1.01 -0.0 1.03 0.10 0.00 1329.385 4054.02 7452.04
2.66 994.58 -1.56 15.49 -24.24 -0.13 -0.98 0.08 0.92 0.10 -0.03 1329.824 4054.02 7452.04
2.85 994.55 20.10 3.16 57.65 -0.19 -0.94 0.08 0.87 0.03 -0.02 1330.379 4054.02 7452.04
2.78 994.56 -26.31 -23.42 19.86 -0.30 -0.94 0.0 0.97 0.09 0.00 1330.827 4054.02 7452.04
2.69 994.57 14.97 -5.20 -20.12 -0.16 -0.86 0.11 0.94 0.09 -0.01 1331.387 4054.02 7452.04
2.92 994.55 0.28 -1.47 -6.92 -0.18 -0.98 0.04 0.94 0.09 -0.01 1331.826 4054.02 7452.04
2.83 994.56 -2.94 5.49 -5.91 -0.19 -0.96 0.15 0.92 0.10 -0.03 1332.386 4054.02 7452.04
2.63 994.58 15.26 5.91 16.75 -0.19 -1.01 0.17 0.93 0.12 -0.03 1332.829 4054.02 7452.04
2.43 994.60 3.20 -14.25 21.97 -0.19 -0.98 0.1 0.98 0.12 -0.01 1333.415 4054.02 7452.04
2.53 994.59 1.01 8.22 -0.95 -0.21 -0.95 0.07 0.96 0.10 -0.00 1333.829 4054.02 7452.04
2.33 994.62 1.40 4.46 0.04 -0.23 -0.97 0.03 0.94 0.09 -0.01 1334.426 4054.02 7452.04
3.00 994.54 7.03 10.72 7.13 -0.24 -0.97 0.04 0.95 0.08 -0.01 1334.832 4054.02 7452.04
2.55 994.59 14.03 -3.43 9.35 -0.26 -0.96 -0.01 0.96 0.08 0.00 1335.389 4054.02 7452.04
2.81 994.56 8.02 -1.95 3.36 -0.20 -0.96 -0.01 1.00 0.07 0.01 1335.831 4054.02 7452.04
2.87 994.55 1.27 2.94 -0.24 -0.27 -0.97 -0.03 0.97 0.07 0.01 1336.392 4054.02 7452.04
3.00 994.54 6.05 -1.58 -0.83 -0.28 -0.97 0.03 0.97 0.10 -0.01 1336.837 4054.02 7452.04
2.94 994.54 -0.25 -4.36 2.11 -0.29 -0.96 0.02 0.97 0.10 -0.01 1337.428 4054.02 7452.04
2.56 994.59 -0.28 -1.13 -1.21 -0.27 -0.96 0.04 0.97 0.11 -0.01 1337.839 4054.02 7452.04
2.33 994.62 0.85 -1.01 -1.00 -0.26 -0.97 0.06 0.98 0.11 -0.00 1338.421 4054.02 7452.04
3.03 994.53 2.45 -0.45 0.10 -0.27 -0.97 0.05 0.98 0.11 -0.01 1338.84 4054.02 7452.04
2.71 994.57 0.72 1.00 0.36 -0.26 -0.97 0.06 0.97 0.11 -0.01 1339.398 4054.02 7452.04
2.23 994.63 2.08 0.01 0.42 -0.26 -0.96 0.07 0.98 0.11 -0.00 1339.84 4054.02 7452.04
2.60 994.58 3.50 1.04 0.14 -0.26 -0.96 0.07 0.98 0.12 -0.01 1340.435 4054.02 7452.04
3.03 994.53 0.14 -1.72 0.95 -0.26 -0.97 0.07 0.98 0.12 -0.02 1340.844 4054.02 7452.04
2.54 994.59 4.94 2.21 1.00 -0.27 -0.96 0.07 0.98 0.12 -0.01 1341.391 4054.02 7452.04
3.01 994.54 2.58 0.81 4.13 -0.24 -0.98 0.07 0.99 0.12 -0.01 1341.844 4054.02 7452.04
2.73 994.57 2.63 2.65 5.40 -0.24 -0.96 0.1 0.99 0.12 -0.02 1342.389 4054.02 7452.04
2.75 994.57 2.56 -0.54 5.49 -0.24 -0.97 0.09 1.00 0.13 -0.01 1342.848 4054.02 7452.04
2.59 994.59 -1.01 -0.38 2.23 -0.23 -0.96 0.1 1.00 0.13 -0.02 1343.434 4054.02 7452.04
2.46 994.60 3.26 0.67 10.95 -0.24 -0.97 0.13 1.02 0.14 -0.01 1343.849 4054.02 7452.04
2.08 994.65 3.06 -0.31 -1.30 -0.24 -0.96 0.12 1.03 0.13 -0.02 1344.424 4054.02 7452.04
2.62 994.58 1.66 -1.36 -4.25 -0.22 -0.96 0.11 1.02 0.13 -0.02 1344.852 4054.02 7452.04
1.85 994.67 -3.09 0.47 -6.34 -0.23 -0.97 0.11 1.00 0.13 -0.02 1345.423 4054.02 7452.04
2.68 994.57 1.21 -1.67 0.42 -0.23 -0.98 0.1 0.99 0.13 -0.02 1345.853 4054.02 7452.04
2.38 994.61 2.42 1.23 2.00 -0.24 -0.97 0.12 1.00 0.14 -0.03 1346.434 4054.02 7452.04
2.60 994.58 4.01 2.76 3.57 -0.24 -0.96 0.12 1.00 0.13 -0.02 1346.855 4054.02 7452.04
2.74 994.57 0.14 -0.77 -1.59 -0.25 -0.96 0.15 1.01 0.14 -0.02 1347.433 4054.02 7452.04
2.22 994.63 2.25 2.07 7.33 -0.24 -0.96 0.13 1.01 0.14 -0.02 1347.857 4054.02 7452.04
2.50 994.60 5.36 3.05 4.90 -0.24 -0.96 0.15 1.02 0.14 -0.02 1348.403 4054.02 7452.04
2.16 994.64 1.91 -1.64 -2.25 -0.22 -0.97 0.14 1.01 0.15 -0.02 1348.864 4054.02 7452.04
2.84 994.56 2.01 0.17 -1.29 -0.23 -0.96 0.12 1.01 0.14 -0.01 1349.412 4054.02 7452.04
2.46 994.60 2.46 -0.27 2.70 -0.23 -0.97 0.11 1.01 0.13 -0.01 1349.864 4054.02 7452.04
2.66 994.58 3.03 1.58 0.81 -0.22 -0.95 0.12 1.01 0.14 -0.02 1350.409 4054.02 7452.04
2.30 994.62 0.46 0.25 -0.81 -0.23 -0.96 0.11 1.01 0.14 -0.01 1350.868 4054.02 7452.04
2.33 994.62 2.12 -0.35 -1.26 -0.25 -0.96 0.11 1.00 0.14 -0.02 1351.415 4054.02 7452.04
2.17 994.63 2.44 1.59 1.01 -0.25 -0.97 0.12 1.00 0.14 -0.02 1351.873 4054.02 7452.04
2.46 994.60 0.77 -3.21 -8.72 -0.27 -0.95 0.12 0.99 0.14 -0.03 1352.427 4054.02 7452.04
2.41 994.61 13.57 7.37 -1.25 -0.30 -0.96 0.13 0.98 0.14 -0.01 1352.885 4054.02 7452.04
2.82 994.56 5.38 1.38 3.19 -0.28 -0.95 0.1 0.98 0.14 -0.03 1353.42 4054.02 7452.04
2.55 994.59 4.73 1.63 6.26 -0.26 -0.96 0.1 0.99 0.13 -0.02 1353.885 4054.02 7452.04
2.92 994.55 1.99 0.31 -1.09 -0.27 -0.96 0.1 0.99 0.14 -0.01 1354.444 4054.02 7452.04
2.74 994.57 2.43 0.47 -0.64 -0.26 -0.96 0.1 0.99 0.14 -0.01 1354.889 4054.02 7452.04
2.67 994.58 2.49 2.20 1.86 -0.26 -0.96 0.11 0.99 0.13 -0.01 1355.453 4054.02 7452.04
2.77 994.56 0.95 -0.14 1.92 -0.27 -0.96 0.1 0.99 0.14 -0.02 1355.891 4054.02 7452.04
2.81 994.56 3.89 0.44 -0.64 -0.26 -0.96 0.11 1.00 0.13 -0.02 1356.43 4054.02 7452.04
2.67 994.58 1.76 0.40 0.99 -0.26 -0.96 0.1 0.99 0.13 -0.02 1356.893 4054.02 7452.04
2.20 994.63 0.46 -0.67 0.71 -0.27 -0.96 0.1 0.99 0.13 -0.02 1357.431 4054.02 7452.04
2.92 994.55 2.03 -0.60 -0.71 -0.25 -0.96 0.11 0.99 0.13 -0.02 1357.897 4054.02 7452.04
2.64 994.58 2.64 1.36 1.65 -0.26 -0.96 0.11 0.99 0.13 -0.01 1358.441 4054.02 7452.04
2.09 994.64 2.43 1.02 -1.03 -0.26 -0.96 0.12 0.99 0.13 -0.01 1358.899 4054.02 7452.04
2.61 994.58 18.12 2.77 1.37 -0.26 -1.01 0.02 0.99 0.10 -0.00 1359.446 4054.02 7452.04
2.35 994.61 -0.67 4.31 7.02 -0.26 -0.98 0.03 1.00 0.10 0.01 1359.9 4054.02 7452.04
2.14 994.64 -4.79 -1.92 1.90 -0.27 -0.98 0.04 1.00 0.11 0.00 1360.436 4054.02 7452.04
2.39 994.61 -0.11 1.65 3.72 -0.29 -0.95 0.07 0.98 0.12 -0.01 1360.904 4054.02 7452.04
2.17 994.63 -2.59 3.51 -0.87 -0.33 -0.95 0.11 0.97 0.13 -0.02 1361.471 4054.02 7452.04
2.61 994.58 -10.05 3.73 5.39 -0.37 -0.91 0.17 0.96 0.16 -0.05 1361.906 4054.02 7452.04
2.50 994.60 2.27 2.98 -5.51 -0.36 -0.89 0.22 0.93 0.18 -0.06 1362.437 4054.02 7452.04
2.67 994.58 3.99 3.28 7.18 -0.40 -0.89 0.23 0.94 0.18 -0.06 1362.907 4054.02 7452.04
2.33 994.62 1.77 -0.14 -4.31 -0.43 -0.88 0.21 0.93 0.17 -0.06 1363.438 4054.02 7452.04
2.72 994.57 4.69 1.15 2.38 -0.43 -0.88 0.23 0.93 0.18 -0.08 1363.908 4054.02 7452.04
2.72 994.57 4.84 2.83 -1.34 -0.43 -0.88 0.2 0.93 0.18 -0.07 1364.442 4054.02 7452.04
2.33 994.62 0.10 1.43 4.78 -0.44 -0.88 0.19 0.92 0.17 -0.06 1364.911 4054.02 7452.04
2.56 994.59 1.38 -1.22 -5.15 -0.44 -0.88 0.23 0.93 0.19 -0.07 1365.465 4054.02 7452.04
2.72 994.57 6.68 -2.53 -1.60 -0.46 -0.88 0.21 0.92 0.17 -0.07 1365.922 4054.02 7452.04
2.10 994.64 11.52 -4.45 1.00 -0.41 -0.89 0.15 0.93 0.15 -0.04 1366.443 4054.02 7452.04
2.31 994.62 6.82 -1.28 -0.52 -0.40 -0.91 0.11 0.94 0.13 -0.03 1366.924 4054.02 7452.04
2.33 994.62 2.13 2.79 6.00 -0.40 -0.92 0.08 0.94 0.13 -0.02 1367.472 4054.02 7452.04
2.02 994.65 2.19 0.02 -3.84 -0.41 -0.90 0.11 0.94 0.12 -0.03 1367.93 4054.02 7452.04
2.59 994.59 4.73 5.75 4.98 -0.41 -0.89 0.1 0.94 0.12 -0.03 1368.473 4054.02 7452.04
2.65 994.58 -0.40 -2.82 0.48 -0.41 -0.92 0.09 0.94 0.12 -0.03 1368.933 4054.02 7452.04
2.19 994.63 2.55 -0.62 -3.41 -0.41 -0.95 0.09 0.94 0.12 -0.03 1369.479 4054.02 7452.04
2.89 994.55 -0.25 0.18 1.26 -0.42 -0.91 0.09 0.94 0.12 -0.03 1369.934 4054.02 7452.04
2.53 994.59 -2.92 -3.85 -0.03 -0.40 -0.92 0.08 0.94 0.13 -0.03 1370.476 4054.02 7452.04
2.51 994.59 -2.14 -3.72 -7.84 -0.43 -0.91 0.08 0.94 0.12 -0.03 1370.938 4054.02 7452.04
2.68 994.57 2.30 6.20 1.22 -0.43 -0.92 0.11 0.94 0.12 -0.03 1371.438 4054.02 7452.04
2.64 994.58 -2.18 -1.40 -2.29 -0.41 -0.89 0.08 0.94 0.12 -0.03 1371.94 4054.02 7452.04
2.28 994.62 2.38 0.29 2.31 -0.43 -0.90 0.09 0.94 0.12 -0.03 1372.439 4054.02 7452.04
2.01 994.65 3.96 -1.58 -6.71 -0.43 -0.92 0.11 0.94 0.12 -0.03 1372.941 4054.02 7452.04
2.46 994.60 -2.87 -10.48 7.57 -0.45 -0.88 0.01 0.92 0.11 -0.04 1373.458 4054.02 7452.04
2.73 994.57 -5.95 -12.68 -9.85 -0.50 -0.88 0.07 0.92 0.11 -0.04 1373.945 4054.02 7452.04
2.20 994.63 1.58 0.03 4.33 -0.49 -0.86 0.08 0.90 0.12 -0.04 1374.453 4054.02 7452.04
2.29 994.62 6.82 11.15 3.84 -0.51 -0.97 0.06 0.93 0.12 -0.02 1374.944 4054.02 7452.04
2.44 994.60 -4.18 -12.65 7.79 -0.43 -0.88 0.01 0.94 0.10 -0.01 1375.482 4054.02 7452.04
2.13 994.64 -2.93 11.91 3.94 -0.31 -0.77 -0.0 0.92 0.11 -0.03 1375.946 4054.02 7452.04
2.17 994.63 9.32 19.80 2.77 -0.49 -1.02 0.14 0.90 0.13 -0.04 1376.483 4054.02 7452.04
1.72 994.69 3.86 -0.21 5.84 -0.51 -0.87 0.12 0.90 0.14 -0.06 1376.948 4054.02 7452.04
2.43 994.60 3.31 -9.53 -6.52 -0.58 -0.84 0.11 0.88 0.14 -0.07 1377.451 4054.02 7452.04
1.98 994.66 0.32 2.25 0.65 -0.56 -0.83 0.12 0.87 0.14 -0.07 1377.949 4054.02 7452.04
2.68 994.57 2.39 1.83 -0.68 -0.56 -0.83 0.1 0.88 0.14 -0.07 1378.451 4054.02 7452.04
1.93 994.66 -1.98 -0.81 -10.35 -0.60 -0.81 0.12 0.86 0.15 -0.08 1378.956 4054.02 7452.04
2.19 994.63 7.17 1.36 14.45 -0.59 -0.81 0.11 0.86 0.14 -0.08 1379.497 4054.02 7452.04
2.51 994.60 5.10 -8.39 -3.71 -0.62 -0.76 0.15 0.87 0.15 -0.08 1379.956 4054.02 7452.04
2.57 994.59 0.66 3.00 -3.88 -0.56 -0.81 0.13 0.87 0.16 -0.08 1380.493 4054.02 7452.04
2.57 994.59 2.21 -0.62 -0.67 -0.60 -0.79 0.14 0.86 0.16 -0.08 1380.959 4054.02 7452.04
2.60 994.58 0.53 -0.37 4.92 -0.60 -0.78 0.19 0.87 0.17 -0.09 1381.459 4054.02 7452.04
2.19 994.63 6.02 1.06 -3.33 -0.60 -0.78 0.17 0.86 0.16 -0.08 1381.96 4054.02 7452.04
2.49 994.60 1.52 -0.39 8.24 -0.58 -0.82 0.15 0.85 0.16 -0.09 1382.479 4054.02 7452.04
2.29 994.62 -4.87 -17.54 2.73 -0.64 -0.96 0.07 0.87 0.14 -0.07 1382.965 4054.02 7452.04
2.32 994.62 3.11 -2.94 -8.78 -0.52 -0.87 0.13 0.90 0.14 -0.05 1383.465 4054.02 7452.04
2.54 994.59 -2.70 -0.99 5.17 -0.51 -0.87 0.11 0.90 0.13 -0.06 1383.966 4054.02 7452.04
2.21 994.63 6.02 4.90 10.70 -0.48 -0.89 0.11 0.92 0.15 -0.04 1384.466 4054.02 7452.04
2.02 994.65 -1.79 -3.78 9.83 -0.49 -0.87 0.14 0.93 0.14 -0.04 1384.969 4054.02 7452.04
2.49 994.60 0.77 2.79 -2.70 -0.50 -0.85 0.14 0.92 0.15 -0.05 1385.468 4054.02 7452.04
2.25 994.62 2.86 2.85 3.56 -0.50 -0.85 0.16 0.92 0.15 -0.05 1385.968 4054.02 7452.04
2.60 994.58 2.10 0.95 -4.17 -0.51 -0.85 0.15 0.91 0.15 -0.05 1386.489 4054.02 7452.04
1.97 994.66 2.64 3.08 2.70 -0.52 -0.85 0.16 0.91 0.15 -0.06 1386.971 4054.02 7452.04
2.19 994.63 0.92 0.02 -1.68 -0.51 -0.85 0.15 0.92 0.16 -0.05 1387.472 4054.02 7452.04
2.60 994.58 2.12 -0.39 1.35 -0.50 -0.85 0.17 0.92 0.16 -0.06 1387.973 4054.02 7452.04
2.32 994.62 4.05 3.70 -0.73 -0.52 -0.85 0.16 0.91 0.16 -0.05 1388.474 4054.02 7452.04
2.51 994.60 2.14 0.51 -0.09 -0.53 -0.84 0.15 0.91 0.15 -0.06 1388.976 4054.02 7452.04
2.22 994.63 1.44 0.03 -2.15 -0.54 -0.84 0.15 0.91 0.16 -0.06 1389.51 4054.02 7452.04
2.30 994.62 3.47 -2.58 -8.93 -0.55 -0.84 0.16 0.90 0.15 -0.06 1389.978 4054.02 7452.04
2.05 994.65 11.34 -1.34 3.22 -0.55 -0.81 0.13 0.90 0.15 -0.06 1390.495 4054.02 7452.04
2.35 994.61 4.63 1.53 3.58 -0.55 -0.85 0.13 0.91 0.14 -0.05 1390.979 4054.02 7452.04
1.94 994.66 10.13 5.88 -17.68 -0.58 -0.80 0.11 0.89 0.13 -0.05 1391.482 4054.02 7452.04
2.22 994.63 1.50 0.79 0.28 -0.59 -0.80 0.05 0.87 0.12 -0.05 1391.98 4054.02 7452.04
2.16 994.64 2.16 0.23 2.51 -0.59 -0.82 0.08 0.88 0.12 -0.06 1392.496 4054.02 7452.04
2.76 994.57 0.58 0.18 1.58 -0.58 -0.81 0.09 0.88 0.13 -0.05 1392.983 4054.02 7452.04
2.84 994.56 1.90 -0.25 -1.04 -0.57 -0.82 0.1 0.89 0.13 -0.06 1393.485 4054.02 7452.04
2.05 994.65 2.58 1.79 0.35 -0.58 -0.81 0.1 0.88 0.13 -0.06 1393.984 4054.02 7452.04
2.66 994.58 2.62 1.08 -0.32 -0.59 -0.81 0.1 0.88 0.13 -0.06 1394.486 4054.02 7452.04
2.90 994.55 1.61 -0.40 -2.03 -0.58 -0.82 0.1 0.88 0.13 -0.05 1394.989 4054.02 7452.04
2.10 994.64 2.58 -0.89 1.60 -0.59 -0.81 0.1 0.88 0.13 -0.05 1395.488 4054.02 7452.04
2.54 994.59 2.55 1.09 -0.25 -0.57 -0.81 0.1 0.88 0.13 -0.05 1395.989 4054.02 7452.04
2.49 994.60 0.06 0.32 0.33 -0.58 -0.82 0.1 0.88 0.14 -0.05 1396.489 4054.02 7452.04
2.51 994.60 2.60 0.81 -0.34 -0.58 -0.82 0.1 0.88 0.13 -0.05 1396.992 4054.02 7452.04
2.00 994.65 2.43 0.19 0.24 -0.58 -0.82 0.1 0.89 0.13 -0.05 1397.491 4054.02 7452.04
2.37 994.61 2.06 1.50 1.15 -0.58 -0.82 0.1 0.88 0.13 -0.06 1397.992 4054.02 7452.04
2.32 994.62 -4.86 -5.85 -18.79 -0.49 -0.86 0.05 0.89 0.11 -0.04 1398.497 4054.02 7452.04
2.48 994.60 2.54 3.05 6.24 -0.54 -0.82 0.01 0.88 0.09 -0.04 1398.994 4054.02 7452.04
2.49 994.60 4.30 3.87 -0.84 -0.54 -0.84 0.02 0.87 0.09 -0.05 1399.525 4054.02 7452.04
2.91 994.55 7.32 -1.36 3.98 -0.54 -0.86 0.01 0.88 0.09 -0.04 1399.997 4054.02 7452.04
2.13 994.64 7.18 9.06 5.36 -0.57 -0.82 -0.01 0.89 0.09 -0.03 1400.497 4054.02 7452.04
2.33 994.62 8.11 5.41 -12.23 -0.52 -0.89 -0.03 0.89 0.08 -0.03 1401.0 4054.02 7452.04
2.93 994.55 8.16 1.56 -1.48 -0.52 -0.93 -0.09 0.87 0.07 -0.03 1401.504 4054.02 7452.04
2.22 994.63 -2.29 -2.06 0.69 -0.55 -0.84 -0.03 0.87 0.08 -0.04 1402.002 4054.02 7452.04
2.00 994.65 0.78 3.05 1.29 -0.55 -0.83 -0.05 0.88 0.08 -0.03 1402.519 4054.02 7452.04
2.66 994.58 5.64 4.85 -2.65 -0.51 -0.87 0.01 0.89 0.10 -0.04 1403.004 4054.02 7452.04
2.63 994.58 13.65 15.36 5.74 -0.58 -0.78 0.05 0.88 0.10 -0.04 1403.506 4054.02 7452.04
2.14 994.64 3.37 -0.24 3.37 -0.55 -0.79 0.04 0.88 0.13 -0.05 1404.006 4054.02 7452.04
2.11 994.64 -0.89 -5.28 3.78 -0.57 -0.83 0.11 0.89 0.13 -0.06 1404.509 4054.02 7452.04
2.47 994.60 2.94 1.37 -0.40 -0.57 -0.81 0.11 0.89 0.13 -0.06 1405.008 4054.02 7452.04
1.92 994.66 2.85 2.38 -0.32 -0.57 -0.83 0.1 0.88 0.13 -0.06 1405.509 4054.02 7452.04
2.19 994.63 2.25 0.60 1.09 -0.58 -0.82 0.1 0.89 0.13 -0.06 1406.009 4054.02 7452.04
2.00 994.66 1.24 -2.08 -0.14 -0.58 -0.82 0.1 0.89 0.13 -0.05 1406.513 4054.02 7452.04
2.19 994.63 2.20 -1.62 -0.15 -0.57 -0.83 0.1 0.89 0.13 -0.05 1407.013 4054.02 7452.04
1.75 994.68 2.71 0.55 2.16 -0.56 -0.82 0.1 0.89 0.13 -0.05 1407.515 4054.02 7452.04
2.41 994.61 4.47 8.47 -0.66 -0.58 -0.81 0.09 0.89 0.13 -0.05 1408.014 4054.02 7452.04
2.25 994.63 0.89 -1.43 1.10 -0.59 -0.81 0.09 0.88 0.13 -0.05 1408.516 4054.02 7452.04
2.41 994.61 1.43 0.50 -0.37 -0.58 -0.82 0.09 0.89 0.13 -0.05 1409.016 4054.02 7452.04
2.50 994.60 0.53 -1.46 2.70 -0.57 -0.82 0.1 0.89 0.13 -0.05 1409.521 4054.02 7452.04
2.56 994.59 2.45 3.26 3.82 -0.57 -0.82 0.12 0.90 0.14 -0.05 1410.017 4054.02 7452.04
1.92 994.66 1.25 -0.01 -2.53 -0.57 -0.82 0.1 0.89 0.14 -0.05 1410.528 4054.02 7452.04
2.38 994.61 3.21 0.58 0.46 -0.57 -0.81 0.11 0.90 0.13 -0.06 1411.019 4054.02 7452.04
2.19 994.63 2.07 1.07 -1.72 -0.58 -0.82 0.1 0.89 0.13 -0.06 1411.524 4054.02 7452.04
2.13 994.64 3.62 0.62 3.99 -0.57 -0.82 0.11 0.90 0.12 -0.05 1412.021 4054.02 7452.04
2.45 994.60 -3.12 -2.32 -9.27 -0.58 -0.82 0.1 0.89 0.14 -0.06 1412.526 4054.02 7452.04
2.59 994.58 4.61 0.61 1.62 -0.57 -0.83 0.1 0.89 0.13 -0.06 1413.023 4054.02 7452.04
2.30 994.62 -0.02 2.10 -4.69 -0.57 -0.82 0.09 0.88 0.13 -0.06 1413.526 4054.02 7452.04
2.66 994.58 7.43 1.08 13.04 -0.56 -0.82 0.09 0.89 0.12 -0.06 1414.026 4054.02 7452.04
2.10 994.64 2.05 -0.01 -0.67 -0.57 -0.82 0.1 0.89 0.12 -0.05 1414.529 4054.02 7452.04
2.34 994.61 -1.43 3.35 -3.95 -0.57 -0.81 0.1 0.89 0.13 -0.06 1415.029 4054.02 7452.04
2.70 994.57 -3.35 -1.30 -7.46 -0.58 -0.81 0.1 0.87 0.13 -0.07 1415.536 4054.02 7452.04
2.66 994.58 -9.56 -11.28 -6.78 -0.63 -0.75 0.15 0.87 0.14 -0.07 1416.033 4054.02 7452.04
1.78 994.68 -16.06 -3.39 -12.54 -0.54 -0.94 0.16 0.85 0.14 -0.10 1416.536 4054.02 7452.04
2.42 994.60 -16.72 -2.70 -38.32 -0.51 -0.82 0.07 0.81 0.13 -0.11 1417.036 4054.02 7452.04
2.00 994.65 -38.30 -28.21 -23.56 -0.50 -0.87 0.19 0.77 0.10 -0.12 1417.538 4054.02 7452.04
1.97 994.66 -2.91 0.81 -18.76 -0.45 -0.85 0.26 0.75 0.09 -0.14 1418.037 4054.02 7452.04
2.56 994.59 8.13 -1.28 4.87 -0.51 -0.86 0.17 0.73 0.05 -0.14 1418.536 4054.02 7452.04
2.27 994.62 1.39 -0.58 -1.78 -0.53 -0.83 0.14 0.74 0.06 -0.14 1419.038 4054.02 7452.04
2.22 994.63 -11.49 21.82 -7.02 -0.56 -0.85 0.13 0.73 0.05 -0.14 1419.541 4054.02 7452.04
2.44 994.60 13.75 9.29 -35.49 -0.52 -0.87 -0.0 0.73 -0.03 -0.13 1420.042 4054.02 7452.04
2.50 994.60 -9.25 -0.05 -30.29 -0.67 -0.26 0.03 0.71 -0.11 -0.14 1420.545 4054.02 7452.04
2.70 994.57 9.61 -0.14 5.70 -0.54 -0.85 -0.14 0.73 -0.15 -0.15 1421.041 4054.02 7452.04
2.27 994.62 -1.05 -10.78 36.22 -0.56 -0.76 -0.21 0.72 -0.11 -0.14 1421.545 4054.02 7452.04
2.91 994.55 7.43 17.24 -60.61 -0.46 -0.88 -0.02 0.73 -0.05 -0.11 1422.046 4054.02 7452.04
2.69 994.57 -9.00 -15.48 -75.91 -0.56 -0.99 -0.07 0.77 -0.23 -0.12 1422.548 4054.02 7452.04
2.59 994.58 0.01 11.09 -6.20 -0.48 -0.80 -0.54 0.85 -0.32 -0.09 1423.046 4054.02 7452.04
2.51 994.59 -11.71 16.35 -41.98 -0.29 -0.77 -0.07 0.90 -0.37 -0.08 1423.551 4054.02 7452.04
2.42 994.61 -26.63 26.18 -2.07 -0.24 -0.90 -0.22 0.97 -0.36 -0.04 1424.051 4054.02 7452.04
2.53 994.59 20.61 -48.70 -10.32 -0.17 -0.98 -0.08 1.07 -0.40 -0.01 1424.552 4054.02 7452.04
2.59 994.59 -11.95 34.94 -29.15 -0.27 -1.31 -0.3 1.09 -0.44 -0.03 1425.053 4054.02 7452.04
2.81 994.56 22.29 -9.39 -1.75 -0.08 -1.16 -0.16 1.07 -0.40 -0.01 1425.552 4054.02 7452.04
1.68 994.69 5.91 -6.13 -0.31 -0.03 -0.95 -0.2 1.03 -0.40 -0.02 1426.053 4054.02 7452.04
2.39 994.61 -1.04 22.85 31.57 -0.11 -0.77 -0.16 1.00 -0.39 -0.03 1426.56 4054.02 7452.04
2.84 994.56 5.41 27.58 14.36 -0.13 -0.77 -0.1 1.00 -0.37 -0.01 1427.054 4054.02 7452.04
2.51 994.59 -12.29 -1.15 6.27 -0.35 -0.86 -0.11 1.02 -0.40 -0.02 1427.556 4054.02 7452.04
2.21 994.63 11.22 -16.06 11.39 -0.30 -1.26 -0.19 1.02 -0.37 -0.01 1428.059 4054.02 7452.04
2.90 994.55 9.63 3.92 -45.67 -0.14 -1.18 -0.18 1.02 -0.38 -0.02 1428.557 4054.02 7452.04
2.51 994.59 -2.31 -2.58 3.64 -0.06 -0.98 -0.2 1.05 -0.36 -0.00 1429.058 4054.02 7452.04
2.56 994.59 -0.22 37.70 15.51 -0.14 -0.86 -0.13 0.99 -0.35 -0.01 1429.56 4054.02 7452.04
2.58 994.59 -3.61 -11.20 -6.50 -0.24 -0.80 -0.06 1.02 -0.38 -0.01 1430.063 4054.02 7452.04
2.49 994.60 1.95 -11.37 9.41 -0.18 -1.26 -0.12 1.01 -0.36 0.00 1430.56 4054.02 7452.04
1.98 994.66 5.72 4.60 -21.02 -0.08 -1.06 -0.15 0.98 -0.36 -0.01 1431.062 4054.02 7452.04
2.27 994.62 -5.99 3.47 0.33 -0.04 -0.86 -0.18 1.03 -0.36 -0.01 1431.562 4054.02 7452.04
2.53 994.59 15.15 23.42 22.51 -0.21 -0.79 -0.07 1.01 -0.34 -0.00 1432.066 4054.02 7452.04
2.18 994.63 -0.17 4.42 -14.04 -0.41 -1.22 -0.12 0.99 -0.38 -0.03 1432.566 4054.02 7452.04
2.21 994.63 -0.23 -12.54 21.80 -0.22 -1.31 -0.15 0.98 -0.35 -0.02 1433.068 4054.02 7452.04
2.41 994.61 -0.15 -5.28 -8.99 -0.07 -0.92 -0.16 0.94 -0.34 -0.03 1433.568 4054.02 7452.05
2.58 994.59 -14.64 17.84 -1.88 -0.12 -0.71 -0.18 0.98 -0.37 -0.02 1434.071 4054.02 7452.05
2.65 994.58 16.17 -26.11 16.40 -0.24 -0.77 -0.08 1.01 -0.36 0.00 1434.57 4054.02 7452.05
2.55 994.59 6.61 -3.40 -28.12 -0.21 -1.24 -0.26 0.99 -0.38 -0.02 1435.071 4054.02 7452.05
1.97 994.66 -2.93 4.08 22.49 -0.06 -0.97 -0.27 1.00 -0.35 0.00 1435.571 4054.02 7452.05
2.33 994.62 -5.88 48.61 2.98 -0.03 -1.01 -0.2 0.98 -0.36 -0.02 1436.073 4054.02 7452.05
2.49 994.60 14.21 -26.46 -17.78 -0.29 -0.78 -0.06 1.02 -0.39 -0.02 1436.577 4054.02 7452.05
2.71 994.57 -5.16 -43.37 17.83 -0.37 -1.36 -0.17 0.96 -0.34 -0.01 1437.077 4054.02 7452.05
2.80 994.56 8.53 -19.92 -32.32 -0.16 -0.83 -0.18 0.96 -0.34 -0.01 1437.579 4054.02 7452.05
2.61 994.58 -10.85 16.26 6.71 -0.05 -0.78 -0.13 1.02 -0.36 0.00 1438.077 4054.02 7452.05
2.63 994.58 34.66 13.25 27.55 -0.20 -0.92 0.0 1.01 -0.36 0.00 1438.579 4054.02 7452.05
2.39 994.61 -8.78 2.51 -20.00 -0.49 -1.23 -0.07 0.99 -0.38 -0.02 1439.08 4054.02 7452.05
2.45 994.60 -1.07 -16.19 26.84 -0.16 -1.28 -0.09 1.00 -0.34 0.01 1439.582 4054.02 7452.05
2.80 994.56 -4.16 -16.00 -14.98 -0.08 -0.86 -0.09 0.93 -0.32 -0.02 1440.084 4054.02 7452.05
2.14 994.64 8.94 -16.91 -11.38 -0.41 -0.83 0.03 0.98 -0.36 -0.02 1440.585 4054.02 7452.05
2.03 994.65 5.45 -4.50 -3.51 -0.12 -1.26 -0.14 0.96 -0.32 -0.01 1441.083 4054.02 7452.05
2.33 994.62 -5.45 5.84 -24.21 -0.10 -0.90 -0.13 0.95 -0.33 -0.02 1441.586 4054.02 7452.05
2.14 994.64 -14.33 14.07 0.71 -0.11 -0.75 -0.11 1.02 -0.36 0.00 1442.085 4054.02 7452.05
2.30 994.62 21.77 -20.40 19.56 -0.26 -0.82 0.01 1.02 -0.34 0.01 1442.588 4054.02 7452.05
1.98 994.66 -1.21 22.34 -12.18 -0.40 -1.37 -0.09 1.01 -0.36 -0.01 1443.089 4054.02 7452.05
2.42 994.61 2.31 -7.07 6.20 -0.26 -1.33 -0.14 1.00 -0.34 0.00 1443.587 4054.02 7452.05
2.20 994.63 0.98 4.38 -12.09 -0.11 -0.95 -0.13 0.97 -0.34 -0.00 1444.089 4054.02 7452.05
2.45 994.60 -24.61 10.18 -7.65 -0.07 -0.70 -0.07 1.02 -0.36 -0.00 1444.592 4054.02 7452.06
2.47 994.60 31.82 20.05 35.10 -0.23 -0.81 0.03 0.99 -0.31 0.01 1445.092 4054.02 7452.06
2.70 994.57 0.96 17.75 -24.37 -0.53 -1.23 -0.02 0.96 -0.36 -0.02 1445.594 4054.02 7452.06
2.64 994.58 5.30 -24.48 8.36 -0.25 -1.29 -0.03 0.96 -0.32 -0.01 1446.093 4054.02 7452.06
2.75 994.57 -1.51 11.49 -11.76 -0.13 -1.46 -0.06 0.97 -0.34 -0.01 1446.596 4054.02 7452.06
2.20 994.63 -21.71 22.43 -1.86 -0.14 -0.77 -0.1 1.04 -0.40 -0.02 1447.097 4054.02 7452.06
2.11 994.64 -2.37 -1.37 27.73 -0.47 -0.93 -0.03 1.00 -0.32 0.02 1447.597 4054.02 7452.06
2.23 994.63 9.22 -8.29 -17.18 -0.09 -0.99 -0.12 0.96 -0.33 -0.01 1448.098 4054.02 7452.06
2.17 994.63 -15.48 18.64 -3.84 -0.14 -0.81 -0.17 0.96 -0.35 -0.01 1448.6 4054.02 7452.06
2.45 994.60 8.00 28.47 33.94 -0.23 -0.78 -0.02 0.96 -0.33 -0.00 1449.099 4054.02 7452.06
2.82 994.56 6.29 -18.93 -16.06 -0.25 -0.70 -0.09 0.97 -0.36 -0.02 1449.603 4054.02 7452.06
2.64 994.58 11.91 -20.78 30.44 -0.47 -1.19 0.01 0.97 -0.31 0.02 1450.103 4054.02 7452.06
1.99 994.66 9.35 -0.94 -34.38 -0.22 -1.13 -0.07 0.94 -0.34 -0.02 1450.603 4054.02 7452.06
2.72 994.57 -11.84 22.83 19.61 -0.39 -1.53 -0.21 0.95 -0.34 -0.02 1451.105 4054.02 7452.06
2.28 994.62 4.88 43.87 19.29 -0.20 -0.80 -0.04 0.96 -0.32 -0.00 1451.604 4054.02 7452.06
2.54 994.59 1.26 -17.03 -9.45 -0.37 -0.74 -0.05 0.97 -0.37 -0.01 1452.106 4054.02 7452.06
2.61 994.58 -7.40 -5.85 5.72 -0.23 -1.53 -0.08 0.98 -0.34 0.01 1452.605 4054.02 7452.06
2.86 994.55 -3.39 13.63 -21.61 -0.13 -0.90 -0.05 0.96 -0.33 0.00 1453.109 4054.02 7452.06
2.42 994.61 -13.23 20.15 17.66 -0.17 -0.72 -0.07 0.99 -0.37 -0.01 1453.612 4054.02 7452.06
2.34 994.62 19.61 -6.41 19.00 -0.30 -0.80 0.04 0.99 -0.33 0.02 1454.111 4054.02 7452.06
2.84 994.56 9.85 8.82 -21.25 -0.55 -1.33 -0.07 0.98 -0.37 -0.02 1454.611 4054.02 7452.06
2.04 994.65 -5.30 -14.88 -2.34 -0.12 -1.03 -0.14 0.98 -0.35 -0.00 1455.115 4054.02 7452.06
2.20 994.63 7.90 10.31 -1.28 -0.19 -0.82 0.04 0.97 -0.34 -0.00 1455.614 4054.02 7452.06
2.64 994.58 20.72 -32.69 -23.30 -0.34 -0.65 -0.07 1.01 -0.38 -0.01 1456.117 4054.02 7452.06
2.66 994.58 -7.74 -30.36 20.68 -0.34 -1.28 0.0 1.00 -0.34 0.02 1456.617 4054.02 7452.06
2.42 994.61 13.13 -4.28 -28.52 -0.18 -0.97 -0.08 0.96 -0.34 0.00 1457.118 4054.02 7452.06
2.37 994.61 -17.01 24.22 15.10 -0.17 -0.90 -0.16 0.97 -0.36 -0.01 1457.619 4054.02 7452.07
2.46 994.60 23.31 17.84 20.07 -0.23 -0.79 -0.02 0.97 -0.34 -0.00 1458.119 4054.02 7452.07
2.57 994.59 1.72 -20.97 -12.14 -0.46 -0.82 -0.06 0.97 -0.38 -0.02 1458.621 4054.02 7452.07
2.88 994.55 4.30 -6.35 -7.95 -0.32 -1.26 -0.09 0.97 -0.34 -0.00 1459.121 4054.02 7452.07
2.35 994.61 -3.53 -5.01 -16.17 -0.17 -0.99 -0.05 0.96 -0.34 -0.02 1459.623 4054.02 7452.07
3.15 994.52 -11.60 23.84 1.02 -0.17 -0.81 -0.12 1.02 -0.36 0.01 1460.122 4054.02 7452.07
2.57 994.59 22.64 30.66 25.83 -0.32 -0.96 -0.02 0.99 -0.33 0.00 1460.623 4054.02 7452.07
2.88 994.55 1.47 -14.44 -33.85 -0.45 -0.96 -0.04 1.01 -0.37 -0.00 1461.127 4054.02 7452.07
2.46 994.60 11.11 -3.23 29.51 -0.22 -1.28 -0.07 1.01 -0.33 0.01 1461.625 4054.02 7452.07
2.51 994.59 -1.32 15.82 -2.18 -0.19 -0.95 -0.06 0.95 -0.34 -0.03 1462.127 4054.02 7452.07
2.66 994.58 -22.38 30.17 18.30 -0.06 -0.68 -0.08 1.01 -0.36 -0.00 1462.629 4054.02 7452.07
2.50 994.60 13.57 -28.00 28.77 -0.31 -0.72 0.01 0.97 -0.31 0.01 1463.131 4054.02 7452.07
2.60 994.58 11.83 -27.50 -48.46 -0.30 -1.32 -0.11 0.94 -0.33 -0.02 1463.632 4054.02 7452.07
2.68 994.57 -9.63 11.07 9.13 -0.25 -1.06 -0.16 0.94 -0.32 -0.01 1464.13 4054.02 7452.07
2.50 994.60 -6.34 11.65 8.14 -0.17 -0.82 0.03 0.93 -0.32 -0.02 1464.632 4054.02 7452.07
2.29 994.62 -2.78 5.84 0.82 -0.33 -0.83 -0.05 0.96 -0.34 -0.01 1465.132 4054.02 7452.07
2.35 994.61 9.09 -1.54 29.01 -0.47 -0.78 0.09 0.92 -0.29 -0.02 1465.634 4054.02 7452.07
2.88 994.55 16.13 -31.01 -43.51 -0.29 -1.12 -0.09 0.92 -0.33 -0.03 1466.137 4054.02 7452.07
2.57 994.59 -5.87 -16.05 12.77 -0.19 -1.08 -0.11 0.92 -0.31 -0.02 1466.637 4054.02 7452.07
2.53 994.59 5.95 -1.92 5.90 -0.15 -0.77 -0.0 0.91 -0.30 -0.02 1467.136 4054.02 7452.07
3.16 994.52 -21.81 30.46 -13.65 -0.23 -0.74 -0.05 0.97 -0.34 -0.01 1467.64 4054.02 7452.07
2.26 994.62 21.92 -30.06 4.78 -0.36 -0.85 0.03 0.95 -0.31 -0.00 1468.14 4054.02 7452.07
2.31 994.62 18.83 -10.16 -32.88 -0.33 -1.19 -0.13 0.95 -0.36 -0.03 1468.642 4054.02 7452.07
3.16 994.52 -0.18 -4.25 19.56 -0.20 -0.99 -0.26 0.94 -0.35 -0.02 1469.142 4054.02 7452.07
2.38 994.61 3.66 11.03 3.96 -0.14 -0.79 -0.06 0.94 -0.35 -0.03 1469.64 4054.02 7452.07
2.85 994.55 10.33 -14.69 -3.51 -0.32 -0.79 -0.08 0.97 -0.38 -0.03 1470.144 4054.02 7452.07
2.71 994.57 4.87 -22.18 22.32 -0.37 -0.87 -0.01 0.94 -0.35 -0.03 1470.645 4054.02 7452.08
2.50 994.60 4.46 -11.07 -19.20 -0.29 -1.11 -0.16 0.93 -0.36 -0.04 1471.148 4054.02 7452.08
2.66 994.58 -1.29 0.50 12.58 -0.26 -0.83 -0.26 0.93 -0.36 -0.04 1471.646 4054.02 7452.08
3.02 994.53 1.22 14.58 7.21 -0.21 -0.77 -0.13 0.93 -0.35 -0.04 1472.146 4054.02 7452.08
2.83 994.56 -6.66 7.03 -15.14 -0.52 -0.92 -0.08 0.95 -0.39 -0.06 1472.65 4054.02 7452.08
2.63 994.58 8.32 -10.55 -0.52 -0.35 -1.34 -0.18 0.95 -0.37 -0.03 1473.15 4054.02 7452.08
3.05 994.53 1.17 5.54 -12.01 -0.27 -0.90 -0.11 0.93 -0.36 -0.04 1473.65 4054.02 7452.08
2.69 994.57 -6.70 12.68 4.81 -0.32 -0.87 -0.12 0.96 -0.39 -0.04 1474.151 4054.02 7452.08
1.75 994.68 31.62 64.59 11.49 -0.75 -0.63 -0.36 0.81 -0.41 -0.20 1474.654 4054.02 7452.08
2.15 994.64 12.26 2.95 -18.83 -0.82 -0.42 -0.46 0.80 -0.45 -0.32 1475.154 4054.02 7452.08
2.25 994.63 0.53 -19.02 1.72 -0.87 -0.51 -0.58 0.84 -0.48 -0.35 1475.654 4054.02 7452.08
3.16 994.52 14.60 12.61 17.68 -0.76 -0.18 -0.51 0.84 -0.48 -0.40 1476.156 4054.02 7452.08
3.17 994.52 6.73 2.76 -5.40 -0.76 -0.38 -0.57 0.81 -0.46 -0.37 1476.656 4054.02 7452.08
2.44 994.60 4.94 1.15 2.41 -0.97 -0.73 -0.59 0.82 -0.46 -0.36 1477.155 4054.02 7452.08
2.63 994.58 0.58 6.13 16.74 -0.72 -0.50 -0.46 0.82 -0.45 -0.36 1477.657 4054.02 7452.08
2.85 994.56 0.04 0.26 9.73 -0.76 -0.41 -0.46 0.82 -0.45 -0.34 1478.157 4054.02 7452.08
3.30 994.50 3.47 -2.20 -0.51 -0.83 -0.33 -0.65 0.82 -0.45 -0.33 1478.661 4054.02 7452.08
2.44 994.60 2.49 2.02 0.11 -0.73 -0.49 -0.46 0.81 -0.45 -0.32 1479.159 4054.02 7452.08
2.95 994.54 3.33 4.43 -1.56 -0.74 -0.47 -0.41 0.82 -0.46 -0.32 1479.661 4054.02 7452.08
2.87 994.55 1.72 0.66 1.83 -0.81 -0.37 -0.47 0.81 -0.45 -0.32 1480.161 4054.02 7452.08
2.91 994.55 2.07 -4.65 0.44 -0.79 -0.70 -0.41 0.81 -0.45 -0.32 1480.664 4054.02 7452.08
2.66 994.58 2.86 -6.13 -1.71 -0.76 -0.68 -0.52 0.81 -0.45 -0.32 1481.165 4054.02 7452.08
2.11 994.64 4.22 0.68 2.63 -0.74 -0.51 -0.43 0.81 -0.45 -0.31 1481.664 4054.02 7452.08
2.01 994.65 2.91 1.59 4.29 -0.88 -0.80 -0.52 0.81 -0.44 -0.32 1482.165 4054.02 7452.08
2.75 994.57 2.91 2.90 1.73 -0.74 -0.45 -0.43 0.81 -0.44 -0.31 1482.667 4054.02 7452.08
2.69 994.57 1.70 0.82 -0.34 -0.76 -0.47 -0.39 0.80 -0.44 -0.31 1483.168 4054.02 7452.08
2.40 994.61 1.44 -1.00 2.24 -0.79 -0.48 -0.46 0.81 -0.44 -0.31 1483.669 4054.02 7452.08
2.61 994.58 3.89 -3.69 4.74 -0.83 -0.61 -0.48 0.81 -0.45 -0.31 1484.17 4054.02 7452.08
2.31 994.62 2.36 3.39 -1.50 -0.73 -0.47 -0.43 0.81 -0.44 -0.31 1484.672 4054.02 7452.08
2.59 994.58 1.56 0.88 1.37 -0.78 -0.45 -0.48 0.81 -0.44 -0.31 1485.171 4054.02 7452.08
2.84 994.56 4.12 -0.18 -1.29 -0.72 -0.49 -0.41 0.81 -0.44 -0.31 1485.674 4054.02 7452.08
3.13 994.52 -1.29 3.36 0.81 -0.74 -0.49 -0.5 0.81 -0.44 -0.31 1486.174 4054.02 7452.08
2.97 994.54 -2.96 -1.13 -1.73 -0.74 -0.50 -0.41 0.81 -0.44 -0.30 1486.678 4054.02 7452.08
2.62 994.58 4.86 0.78 -1.15 -0.76 -0.54 -0.41 0.81 -0.44 -0.31 1487.176 4054.02 7452.08
2.94 994.54 2.34 3.24 1.85 -0.79 -0.51 -0.4 0.80 -0.44 -0.30 1487.676 4054.02 7452.08
2.69 994.57 2.80 7.34 7.39 -0.72 -0.68 -0.37 0.81 -0.44 -0.32 1488.178 4054.02 7452.08
2.70 994.57 8.12 3.37 -11.38 -0.80 -0.44 -0.4 0.82 -0.46 -0.35 1488.681 4054.02 7452.08
2.72 994.57 -7.17 -11.23 -0.25 -0.81 -0.39 -0.54 0.82 -0.46 -0.34 1489.184 4054.02 7452.08
2.88 994.55 -11.22 7.88 1.31 -0.77 -0.48 -0.45 0.82 -0.46 -0.33 1489.683 4054.02 7452.08
2.14 994.64 1.20 -4.67 4.45 -0.55 -0.33 -0.34 0.81 -0.45 -0.32 1490.184 4054.02 7452.08
2.92 994.55 5.23 1.23 -4.25 -0.62 -0.52 -0.39 0.81 -0.46 -0.31 1490.684 4054.02 7452.08
2.34 994.61 0.61 1.02 0.61 -0.80 -0.50 -0.47 0.82 -0.45 -0.32 1491.184 4054.02 7452.08
1.95 994.66 4.02 3.94 -1.46 -0.83 -0.32 -0.38 0.81 -0.44 -0.30 1491.686 4054.02 7452.08
2.56 994.59 4.52 -1.58 -2.07 -0.72 -0.45 -0.53 0.81 -0.45 -0.30 1492.189 4054.02 7452.08
2.59 994.58 -4.88 23.34 13.33 -0.78 -0.22 -0.48 0.81 -0.45 -0.31 1492.69 4054.02 7452.08
2.63 994.58 -0.69 -4.05 -1.25 -0.75 -0.49 -0.37 0.82 -0.46 -0.30 1493.191 4054.02 7452.08
3.00 994.54 0.39 -0.04 -0.78 -0.71 -0.55 -0.41 0.81 -0.45 -0.29 1493.691 4054.02 7452.08
2.56 994.59 -1.06 -3.06 -1.48 -1.11 -0.08 -0.36 0.81 -0.45 -0.28 1494.194 4054.02 7452.08
2.65 994.58 1.45 -0.40 0.95 -0.73 -0.63 -0.33 0.82 -0.46 -0.28 1494.692 4054.02 7452.08
2.67 994.58 5.45 2.72 1.67 -0.75 -0.58 -0.44 0.82 -0.45 -0.28 1495.192 4054.02 7452.08
3.11 994.52 3.03 -1.17 0.21 -0.71 -0.55 -0.42 0.82 -0.46 -0.28 1495.694 4054.02 7452.08
2.28 994.62 9.79 -5.41 -6.08 -0.81 -0.40 -0.46 0.82 -0.46 -0.29 1496.197 4054.02 7452.08
2.09 994.64 9.06 6.36 -15.67 -0.81 -0.51 -0.42 0.81 -0.45 -0.33 1496.697 4054.02 7452.08
2.71 994.57 1.03 4.53 4.15 -0.81 -0.38 -0.35 0.80 -0.43 -0.31 1497.196 4054.02 7452.08
2.40 994.61 3.32 -7.29 -1.23 -0.78 -0.28 -0.37 0.80 -0.43 -0.29 1497.699 4054.02 7452.08
2.59 994.59 2.57 9.44 -8.17 -0.73 -0.51 -0.44 0.81 -0.46 -0.30 1498.2 4054.02 7452.08
2.62 994.58 11.25 -24.17 0.38 -0.84 -0.35 -0.47 0.80 -0.44 -0.31 1498.702 4054.02 7452.08
2.40 994.61 -3.85 0.60 1.14 -0.66 -0.82 -0.45 0.81 -0.44 -0.30 1499.201 4054.02 7452.08
2.90 994.55 0.65 2.23 -1.56 -0.72 -0.50 -0.46 0.82 -0.45 -0.30 1499.702 4054.02 7452.08
2.06 994.65 0.94 -0.80 0.79 -0.51 -0.02 -0.44 0.82 -0.45 -0.29 1500.204 4054.02 7452.08
2.50 994.60 -1.12 9.50 5.14 -0.85 -0.28 -0.35 0.82 -0.45 -0.29 1500.704 4054.02 7452.08
2.40 994.61 1.73 17.18 7.53 -0.77 -0.54 -0.46 0.80 -0.44 -0.30 1501.205 4054.02 7452.08
2.56 994.59 1.15 5.75 2.57 -0.82 -0.34 -0.42 0.79 -0.43 -0.36 1501.705 4054.02 7452.08
2.46 994.60 4.41 -1.64 2.55 -0.88 -0.29 -0.34 0.78 -0.41 -0.40 1502.208 4054.02 7452.08
2.71 994.57 1.91 -14.83 4.64 -0.85 -0.39 -0.45 0.78 -0.42 -0.35 1502.709 4054.02 7452.08
2.29 994.62 3.68 0.51 2.84 -0.84 -0.43 -0.38 0.77 -0.42 -0.36 1503.208 4054.02 7452.08
2.53 994.59 2.57 -23.16 -4.76 -0.77 -0.27 -0.38 0.79 -0.44 -0.32 1503.712 4054.02 7452.08
2.30 994.62 4.20 -1.42 -1.64 -0.83 -0.41 -0.43 0.78 -0.42 -0.35 1504.212 4054.02 7452.08
2.68 994.57 4.24 5.22 -3.24 -0.80 -0.34 -0.39 0.79 -0.43 -0.37 1504.712 4054.02 7452.08
2.44 994.60 -3.20 -24.95 -9.58 -0.75 -0.42 -0.44 0.80 -0.45 -0.35 1505.216 4054.02 7452.08
1.96 994.66 -7.99 3.71 -4.07 -0.79 -0.50 -0.41 0.80 -0.43 -0.30 1505.716 4054.02 7452.08
2.04 994.65 -5.58 1.53 -4.86 -0.79 -0.55 -0.38 0.81 -0.45 -0.29 1506.217 4054.02 7452.08
1.63 994.70 5.34 -0.51 1.81 -0.77 -0.53 -0.39 0.82 -0.45 -0.27 1506.717 4054.02 7452.08
2.57 994.59 3.91 -1.59 -4.80 -0.76 -0.54 -0.42 0.83 -0.46 -0.28 1507.219 4054.02 7452.08
1.99 994.66 6.10 -1.60 4.07 -0.73 -0.55 -0.44 0.84 -0.46 -0.28 1507.72 4054.02 7452.08
2.90 994.55 1.54 1.66 4.72 -0.73 -0.53 -0.44 0.83 -0.46 -0.28 1508.219 4054.02 7452.08
2.53 994.59 0.00 -5.84 -2.07 -0.73 -0.56 -0.39 0.83 -0.45 -0.26 1508.722 4054.02 7452.08
2.53 994.59 2.31 0.97 4.57 -0.68 -0.64 -0.38 0.85 -0.45 -0.23 1509.221 4054.02 7452.08
1.86 994.67 0.81 0.85 0.91 -0.69 -0.64 -0.36 0.84 -0.44 -0.24 1509.723 4054.02 7452.08
2.84 994.56 3.54 0.60 1.67 -0.68 -0.62 -0.36 0.84 -0.44 -0.23 1510.223 4054.02 7452.08
2.88 994.55 4.66 -0.28 0.00 -0.69 -0.62 -0.36 0.84 -0.44 -0.23 1510.725 4054.02 7452.08
2.57 994.59 -8.78 -14.76 -2.13 -0.60 -0.65 -0.44 0.87 -0.46 -0.21 1511.229 4054.02 7452.08
2.62 994.58 0.84 -0.78 3.72 -0.52 -0.77 -0.4 0.89 -0.45 -0.16 1511.728 4054.02 7452.08
2.50 994.60 0.12 4.21 11.28 -0.53 -0.80 -0.38 0.88 -0.44 -0.17 1512.228 4054.02 7452.08
2.63 994.58 6.72 -8.14 -1.95 -0.51 -0.80 -0.34 0.90 -0.45 -0.16 1512.73 4054.02 7452.08
2.38 994.61 4.09 6.05 3.61 -0.48 -0.71 -0.42 0.91 -0.46 -0.16 1513.229 4054.02 7452.08
2.99 994.54 6.55 -6.62 -13.55 -0.36 -0.82 -0.5 0.98 -0.49 -0.14 1513.734 4054.02 7452.08
2.74 994.57 6.51 5.24 11.77 -0.48 -0.67 -0.52 0.94 -0.51 -0.22 1514.232 4054.02 7452.08
2.77 994.56 1.48 13.09 -15.98 -0.46 -0.75 -0.47 0.95 -0.50 -0.18 1514.735 4054.02 7452.08
2.50 994.60 6.20 -14.27 5.11 -0.42 -0.75 -0.5 0.97 -0.51 -0.17 1515.235 4054.02 7452.08
2.31 994.62 -1.86 4.86 -0.25 -0.46 -0.77 -0.49 0.96 -0.51 -0.16 1515.737 4054.02 7452.08
2.21 994.63 3.31 -2.32 6.04 -0.50 -0.77 -0.48 0.94 -0.50 -0.17 1516.236 4054.02 7452.08
2.60 994.58 7.33 -7.74 10.12 -0.49 -0.78 -0.41 0.92 -0.48 -0.17 1516.738 4054.02 7452.08
2.49 994.60 4.50 0.35 7.45 -0.49 -0.77 -0.42 0.89 -0.46 -0.17 1517.237 4054.02 7452.08
2.30 994.62 4.51 -1.60 -3.82 -0.50 -0.77 -0.4 0.89 -0.46 -0.17 1517.741 4054.02 7452.08
2.69 994.57 2.68 -0.19 0.95 -0.50 -0.76 -0.42 0.90 -0.46 -0.18 1518.24 4054.02 7452.08
2.28 994.62 -0.41 -1.72 0.75 -0.47 -0.77 -0.4 0.90 -0.47 -0.17 1518.742 4054.02 7452.08
2.33 994.62 17.07 -8.36 16.64 -0.54 -0.78 -0.4 0.89 -0.46 -0.17 1519.244 4054.02 7452.08
2.39 994.61 60.45 -19.28 27.36 -0.49 -0.76 -0.46 0.85 -0.43 -0.21 1519.747 4054.02 7452.08
2.55 994.59 11.17 -4.25 18.63 -0.57 -0.53 -0.62 0.80 -0.41 -0.27 1520.246 4054.02 7452.08
2.30 994.62 8.03 -0.95 22.32 -0.62 -0.59 -0.54 0.76 -0.36 -0.26 1520.746 4054.02 7452.08
2.48 994.60 8.23 3.07 4.95 -0.66 -0.54 -0.54 0.74 -0.33 -0.27 1521.245 4054.02 7452.08
2.36 994.61 -2.21 2.52 3.48 -0.64 -0.54 -0.54 0.74 -0.32 -0.28 1521.747 4054.02 7452.08
2.23 994.63 -0.31 -0.19 2.51 -0.65 -0.55 -0.51 0.74 -0.32 -0.27 1522.249 4054.02 7452.08
2.51 994.59 2.77 1.70 0.03 -0.66 -0.56 -0.51 0.73 -0.32 -0.27 1522.748 4054.02 7452.08
2.20 994.63 -1.97 2.04 -5.17 -0.68 -0.56 -0.49 0.73 -0.32 -0.27 1523.252 4054.02 7452.08
2.34 994.61 16.41 -1.36 26.49 -0.62 -0.61 -0.63 0.73 -0.32 -0.28 1523.755 4054.02 7452.08
2.84 994.56 -2.86 -13.24 26.14 -0.63 -0.68 -0.41 0.71 -0.24 -0.24 1524.256 4054.02 7452.08
2.94 994.54 -32.03 2.77 35.66 -0.73 -0.75 -0.13 0.70 -0.11 -0.20 1524.756 4054.02 7452.08
2.33 994.62 -50.51 221.62 -30.17 -0.33 -0.40 0.48 0.69 0.08 -0.33 1525.261 4054.02 7452.08
2.70 994.57 -13.19 -14.93 16.05 -0.88 0.44 0.14 0.79 -0.19 -0.68 1525.761 4054.02 7452.08
2.64 994.58 6.50 7.39 -3.51 -0.96 0.36 0.08 0.79 -0.17 -0.69 1526.257 4054.02 7452.08
2.17 994.64 12.92 19.65 8.26 -0.80 0.67 0.53 0.86 -0.16 -0.74 1526.759 4054.02 7452.08
2.64 994.58 33.83 -84.13 4.57 -0.98 0.16 0.01 0.73 -0.14 -0.60 1527.262 4054.02 7452.08
2.92 994.55 27.46 56.81 -18.59 -0.86 -0.24 0.23 0.68 -0.01 -0.49 1527.764 4054.02 7452.08
2.34 994.61 51.63 -39.66 -53.65 -0.56 -0.79 -0.35 0.76 -0.26 -0.18 1528.265 4054.02 7452.08
2.69 994.57 45.23 39.98 -14.24 -0.23 -0.56 -0.72 0.90 -0.47 -0.22 1528.765 4054.02 7452.08
2.91 994.55 -12.67 2.00 -0.47 -0.34 -0.24 -1.0 0.98 -0.57 -0.40 1529.266 4054.02 7452.08
2.75 994.57 0.44 6.25 4.80 -0.36 -0.39 -0.84 0.93 -0.54 -0.37 1529.763 4054.02 7452.08
2.26 994.62 -1.13 -29.09 6.44 -0.34 -0.37 -0.88 0.92 -0.53 -0.34 1530.267 4054.02 7452.08
2.58 994.59 5.96 -0.10 2.09 -0.31 -0.62 -0.66 0.91 -0.52 -0.35 1530.766 4054.02 7452.08
2.81 994.56 2.63 -2.50 -0.90 -0.39 -0.41 -0.82 0.91 -0.53 -0.34 1531.269 4054.02 7452.08
2.20 994.63 4.77 -12.08 3.61 -0.20 -0.54 -0.72 0.95 -0.52 -0.22 1531.769 4054.02 7452.08
2.42 994.61 2.47 2.38 4.42 -0.31 -0.59 -0.73 0.92 -0.51 -0.24 1532.268 4054.02 7452.08
2.40 994.61 2.57 -5.99 7.26 -0.33 -0.59 -0.7 0.90 -0.49 -0.23 1532.77 4054.02 7452.08
2.04 994.65 0.89 -13.03 -4.24 -0.37 -0.65 -0.72 0.89 -0.48 -0.21 1533.274 4054.02 7452.08
2.91 994.55 -7.08 -13.66 3.47 -0.20 -0.76 -0.62 0.93 -0.47 -0.16 1533.774 4054.02 7452.08
2.28 994.62 2.62 4.58 2.39 -0.22 -0.76 -0.69 0.93 -0.46 -0.13 1534.272 4054.02 7452.08
2.54 994.59 3.96 0.31 4.61 -0.25 -0.70 -0.6 0.92 -0.46 -0.16 1534.773 4054.02 7452.08
2.61 994.58 -24.36 12.31 -2.62 -0.29 -0.72 -0.6 0.92 -0.46 -0.17 1535.279 4054.02 7452.08
2.04 994.65 -0.67 7.80 -8.67 -0.25 -0.70 -0.59 0.92 -0.45 -0.15 1535.777 4054.02 7452.08
2.42 994.61 9.85 -0.33 7.19 -0.21 -0.74 -0.67 0.93 -0.45 -0.15 1536.277 4054.02 7452.08
2.49 994.60 19.77 -17.18 0.86 -0.18 -0.75 -0.63 0.93 -0.46 -0.15 1536.78 4054.02 7452.08
2.29 994.62 -0.18 -2.27 0.21 -0.21 -0.79 -0.59 0.93 -0.45 -0.13 1537.281 4054.02 7452.08
2.73 994.57 4.54 -5.37 4.00 -0.21 -0.76 -0.6 0.93 -0.44 -0.13 1537.78 4054.02 7452.08
2.68 994.57 -1.36 -0.81 -3.00 -0.19 -0.80 -0.59 0.93 -0.43 -0.12 1538.283 4054.02 7452.08
2.76 994.57 9.62 -4.35 5.05 -0.26 -0.75 -0.61 0.93 -0.43 -0.11 1538.782 4054.02 7452.08
2.74 994.57 0.64 1.16 0.45 -0.19 -0.81 -0.6 0.93 -0.43 -0.11 1539.282 4054.02 7452.08
2.22 994.63 1.84 1.79 1.59 -0.16 -0.86 -0.55 0.93 -0.43 -0.12 1539.783 4054.02 7452.08
2.50 994.60 -1.18 5.96 -4.67 -0.09 -0.55 -0.35 0.93 -0.43 -0.12 1540.286 4054.02 7452.08
2.71 994.57 4.67 1.89 3.17 -0.18 -0.86 -0.56 0.93 -0.43 -0.11 1540.786 4054.02 7452.08
2.54 994.59 -4.72 6.69 6.11 -0.29 -0.74 -0.58 0.93 -0.43 -0.12 1541.288 4054.02 7452.08
2.10 994.64 -12.10 -2.54 -13.87 -0.18 -0.81 -0.52 0.93 -0.43 -0.12 1541.793 4054.02 7452.08
2.60 994.58 -0.58 -1.09 6.99 -0.22 -0.79 -0.54 0.93 -0.44 -0.12 1542.291 4054.02 7452.08
2.30 994.62 0.60 -1.53 2.42 -0.20 -0.79 -0.52 0.93 -0.43 -0.13 1542.792 4054.02 7452.08
2.53 994.59 -4.39 -0.38 -1.41 -0.21 -0.82 -0.53 0.93 -0.43 -0.11 1543.294 4054.02 7452.08
2.14 994.64 -3.17 -2.67 4.71 -0.19 -0.83 -0.55 0.94 -0.42 -0.10 1543.794 4054.02 7452.08
2.06 994.65 0.45 -6.38 2.28 -0.15 -0.82 -0.53 0.94 -0.43 -0.11 1544.294 4054.02 7452.08
2.31 994.62 -2.99 -3.96 -0.09 -0.11 -0.86 -0.52 0.95 -0.42 -0.09 1544.798 4054.02 7452.08
2.60 994.58 -4.68 -5.80 3.89 -0.01 -0.90 -0.47 0.96 -0.38 -0.05 1545.297 4054.02 7452.08
2.49 994.60 9.81 0.97 20.57 -0.05 -0.91 -0.26 0.98 -0.33 -0.01 1545.797 4054.02 7452.08
2.69 994.57 -0.74 -18.46 -69.68 -0.04 -1.05 -0.55 1.01 -0.39 -0.04 1546.321 4054.02 7452.08
2.59 994.58 9.21 32.72 -7.35 0.02 -0.79 -0.58 1.01 -0.46 -0.10 1546.8 4054.02 7452.08
2.36 994.61 2.92 -22.35 49.74 -0.26 -1.02 -0.42 0.99 -0.43 -0.07 1547.302 4054.02 7452.08
2.03 994.65 -22.06 -23.70 4.01 -0.04 -0.93 -0.56 0.96 -0.33 -0.03 1547.804 4054.02 7452.08
2.37 994.61 -7.96 -35.90 97.26 0.04 -0.90 -0.26 1.01 -0.24 0.03 1548.304 4054.02 7452.08
2.45 994.60 22.82 13.46 -51.37 0.21 -1.21 -0.13 0.95 -0.24 0.00 1548.805 4054.02 7452.08
2.34 994.61 16.68 -10.23 15.00 -0.21 -0.78 -0.51 1.02 -0.27 0.02 1549.306 4054.02 7452.08
2.36 994.61 -4.92 -0.88 -19.34 0.11 -0.79 -0.41 1.05 -0.31 0.01 1549.806 4054.02 7452.08
2.47 994.60 -3.99 17.39 -60.05 0.06 -0.86 -0.42 1.02 -0.35 -0.02 1550.308 4054.02 7452.08
2.20 994.63 15.90 -2.10 22.04 0.31 -0.86 -0.38 1.13 -0.37 0.01 1550.808 4054.02 7452.08
2.28 994.62 30.09 18.64 8.34 0.49 -0.71 -0.25 1.21 -0.37 0.01 1551.326 4054.02 7452.08
2.61 994.58 -9.61 -5.17 -7.01 0.21 -0.82 -0.53 1.14 -0.34 0.01 1551.809 4054.02 7452.08
2.42 994.60 5.14 -15.72 -7.62 0.28 -0.85 -0.44 1.14 -0.35 0.01 1552.31 4054.02 7452.08
2.91 994.55 7.24 -10.66 12.97 0.41 -0.81 -0.44 1.20 -0.35 0.02 1552.812 4054.02 7452.08
2.48 994.60 -14.31 -43.73 55.41 0.46 -0.85 -0.54 1.20 -0.35 0.01 1553.314 4054.02 7452.08
1.90 994.67 11.74 -5.13 35.25 0.22 -0.94 -0.45 1.23 -0.27 0.07 1553.813 4054.02 7452.08
2.50 994.60 0.75 53.96 -101.16 0.29 -0.87 -0.55 1.12 -0.32 0.02 1554.315 4054.02 7452.08
2.66 994.58 7.06 5.89 17.74 0.19 -0.92 -0.22 1.11 -0.28 0.02 1554.813 4054.02 7452.08
2.17 994.63 -2.76 3.66 -0.27 0.14 -0.96 -0.26 1.08 -0.27 0.03 1555.315 4054.02 7452.08
2.75 994.57 18.24 22.45 22.71 0.06 -0.89 -0.35 1.02 -0.31 0.00 1555.817 4054.02 7452.08
2.36 994.61 -6.96 -8.88 20.84 -0.07 -0.97 -0.38 0.97 -0.28 -0.02 1556.335 4054.02 7452.08
2.39 994.61 8.49 -5.31 11.65 -0.08 -0.90 -0.36 1.01 -0.25 0.00 1556.819 4054.02 7452.08
2.31 994.62 -4.91 12.70 7.91 -0.08 -0.97 -0.32 1.00 -0.21 0.01 1557.398 4054.02 7452.08
2.45 994.60 0.52 -3.70 -1.02 -0.09 -0.87 -0.32 0.97 -0.21 0.01 1557.821 4054.02 7452.08
2.59 994.59 0.55 -1.04 14.25 -0.17 -0.92 -0.3 0.95 -0.15 -0.00 1558.324 4054.02 7452.08
1.99 994.66 7.89 2.01 28.74 -0.17 -0.92 -0.28 0.97 -0.15 0.01 1558.823 4054.02 7452.08
2.07 994.65 12.49 -10.10 5.96 -0.18 -0.96 -0.28 0.98 -0.15 0.01 1559.327 4054.02 7452.08
2.01 994.65 4.67 1.00 -1.72 -0.14 -0.94 -0.3 0.98 -0.17 0.02 1559.825 4054.02 7452.08
2.06 994.65 4.03 -2.28 1.94 -0.13 -0.92 -0.35 0.99 -0.18 0.02 1560.327 4054.02 7452.08
2.21 994.63 3.76 1.97 -3.25 -0.07 -0.89 -0.3 1.01 -0.18 0.02 1560.827 4054.02 7452.08
2.23 994.63 3.54 5.47 -1.92 -0.12 -0.91 -0.42 0.99 -0.21 0.01 1561.328 4054.02 7452.08
2.01 994.65 0.97 11.10 -5.15 -0.12 -0.96 -0.38 0.98 -0.22 0.01 1561.83 4054.02 7452.08
2.26 994.62 -27.40 16.30 -32.36 -0.15 -0.90 -0.27 0.94 -0.18 -0.01 1562.336 4054.02 7452.08
1.98 994.66 21.29 6.43 7.48 -0.25 -0.91 -0.32 0.93 -0.22 -0.02 1562.832 4054.02 7452.08
2.21 994.63 58.15 42.74 -20.25 -0.37 -0.60 -0.68 0.83 -0.36 -0.17 1563.356 4054.02 7452.08
2.15 994.64 33.56 47.56 -73.81 -0.32 -0.37 -0.92 0.93 -0.53 -0.32 1563.837 4054.02 7452.08
2.71 994.57 25.72 43.66 -42.56 0.09 -0.15 -0.82 1.28 -0.63 -0.40 1564.392 4054.02 7452.08
3.15 994.52 -7.39 165.82 -10.03 0.20 -0.35 -0.95 1.32 -0.60 -0.46 1564.839 4054.02 7452.08
2.29 994.62 15.03 70.74 -20.18 0.08 -0.41 -0.82 1.40 -0.58 -0.33 1565.339 4054.02 7452.08
2.66 994.58 5.70 3.16 -31.95 0.06 -0.35 -0.97 1.39 -0.58 -0.31 1565.838 4054.02 7452.08
2.26 994.62 -10.62 -28.94 -18.10 0.15 -0.44 -0.88 1.43 -0.56 -0.29 1566.396 4054.02 7452.08
2.52 994.59 0.36 -2.94 -3.12 0.30 -0.55 -0.86 1.45 -0.53 -0.26 1566.84 4054.02 7452.08
2.12 994.64 2.44 6.07 2.50 0.29 -0.55 -0.91 1.46 -0.53 -0.27 1567.404 4054.02 7452.08
2.43 994.60 6.32 15.65 0.01 0.22 -0.50 -0.81 1.46 -0.53 -0.27 1567.841 4054.02 7452.08
2.52 994.59 0.12 -30.20 -4.28 0.26 -0.47 -0.88 1.45 -0.53 -0.27 1568.398 4054.02 7452.08
2.46 994.60 0.52 9.07 3.75 0.25 -0.58 -0.89 1.45 -0.53 -0.27 1568.842 4054.02 7452.08
2.63 994.58 0.09 36.51 10.57 0.12 -0.36 -0.72 1.46 -0.53 -0.26 1569.424 4054.02 7452.08
2.62 994.58 -14.81 -22.54 13.91 0.28 -0.46 -0.8 1.45 -0.54 -0.29 1569.849 4054.02 7452.08
2.71 994.57 -13.29 -37.86 19.85 0.15 -0.52 -0.98 1.41 -0.57 -0.32 1570.403 4054.02 7452.08
2.44 994.60 3.75 10.36 -0.43 0.28 -0.35 -0.83 1.39 -0.59 -0.33 1570.848 4054.02 7452.08
2.57 994.59 6.99 -12.53 -10.11 0.42 -0.59 -0.78 1.41 -0.57 -0.33 1571.374 4054.02 7452.08
2.16 994.64 7.03 5.53 0.05 0.27 -0.51 -0.8 1.41 -0.56 -0.31 1571.848 4054.02 7452.08
2.70 994.57 1.98 24.55 5.24 0.24 -0.45 -0.82 1.42 -0.57 -0.32 1572.35 4054.02 7452.08
2.40 994.61 5.07 1.69 0.48 0.21 -0.40 -0.89 1.42 -0.57 -0.32 1572.85 4054.02 7452.08
2.76 994.57 0.68 24.97 3.18 0.25 -0.47 -0.86 1.42 -0.57 -0.32 1573.352 4054.02 7452.08
2.60 994.58 4.11 -9.09 22.61 0.28 -0.47 -0.84 1.39 -0.58 -0.35 1573.854 4054.02 7452.08
2.57 994.59 5.04 -94.24 26.62 0.25 -0.31 -0.88 1.31 -0.61 -0.42 1574.356 4054.02 7452.08
2.49 994.60 8.65 -32.59 10.80 0.04 -0.18 -1.03 1.19 -0.62 -0.43 1574.857 4054.02 7452.08
2.20 994.63 -14.42 -82.75 3.13 0.05 -0.21 -1.11 1.17 -0.62 -0.39 1575.433 4054.02 7452.08
2.13 994.64 0.23 12.94 1.13 0.22 -0.19 -0.94 1.15 -0.61 -0.32 1575.858 4054.02 7452.08
2.52 994.59 8.90 8.76 3.70 0.18 -0.16 -0.92 1.16 -0.61 -0.35 1576.437 4054.02 7452.08
1.80 994.68 -1.02 4.12 4.13 0.17 -0.16 -0.96 1.16 -0.61 -0.37 1576.86 4054.02 7452.08
2.26 994.62 5.38 -15.17 -0.33 0.21 -0.32 -0.97 1.16 -0.61 -0.33 1577.363 4054.02 7452.08
2.16 994.64 32.27 15.22 2.83 -0.02 -0.04 -0.98 1.11 -0.60 -0.47 1577.865 4054.02 7452.08
1.96 994.66 -4.41 1.52 -4.51 -0.05 0.05 -1.03 1.11 -0.58 -0.51 1578.433 4054.02 7452.08
2.84 994.56 -10.12 -1.15 2.02 -0.03 -0.04 -0.99 1.10 -0.59 -0.46 1578.867 4054.02 7452.08
2.52 994.59 4.29 -6.86 -6.44 0.05 -0.06 -0.98 1.10 -0.60 -0.44 1579.367 4054.02 7452.08
2.56 994.59 -49.44 38.91 -23.81 0.10 -0.27 -0.9 1.16 -0.61 -0.40 1579.871 4054.02 7452.08
1.77 994.68 3.72 -26.88 -7.43 0.23 -0.32 -0.89 1.17 -0.61 -0.34 1580.37 4054.02 7452.08
2.34 994.62 35.15 3.26 11.56 0.31 -0.47 -0.9 1.21 -0.60 -0.30 1580.869 4054.02 7452.08
2.62 994.58 -1.29 -10.45 4.87 0.21 -0.30 -0.94 1.19 -0.61 -0.33 1581.395 4054.02 7452.08
2.24 994.63 1.92 -6.85 2.43 0.22 -0.31 -0.95 1.18 -0.61 -0.33 1581.871 4054.02 7452.08
2.22 994.63 -2.72 -2.09 -0.87 0.19 -0.31 -0.91 1.19 -0.62 -0.32 1582.437 4054.02 7452.08
2.49 994.60 2.07 -3.12 -0.81 0.25 -0.29 -0.89 1.19 -0.61 -0.32 1582.873 4054.02 7452.08
2.02 994.65 5.28 0.56 -2.27 0.22 -0.34 -0.9 1.18 -0.61 -0.31 1583.392 4054.02 7452.08
2.04 994.65 1.44 8.22 -0.47 0.24 -0.36 -0.87 1.19 -0.60 -0.31 1583.875 4054.02 7452.08
2.98 994.54 -4.56 -6.66 1.57 0.26 -0.35 -0.89 1.20 -0.60 -0.29 1584.473 4054.02 7452.08
2.93 994.54 -1.20 0.95 0.74 0.30 -0.29 -0.91 1.21 -0.60 -0.29 1584.876 4054.02 7452.08
2.70 994.57 -5.72 -6.46 4.17 0.33 -0.35 -0.86 1.22 -0.60 -0.28 1585.473 4054.02 7452.08
3.01 994.54 -5.21 -52.47 24.32 0.25 -0.26 -0.88 1.19 -0.59 -0.25 1585.882 4054.02 7452.08
2.40 994.61 7.49 5.02 2.74 0.18 -0.17 -0.95 1.17 -0.59 -0.25 1586.418 4054.02 7452.08
2.38 994.61 6.43 20.57 -2.23 0.22 -0.20 -0.95 1.15 -0.59 -0.29 1586.881 4054.02 7452.08
2.43 994.60 8.05 21.40 -0.20 0.22 -0.15 -0.95 1.14 -0.61 -0.32 1587.481 4054.02 7452.08
2.57 994.59 2.76 5.05 0.62 0.20 -0.16 -0.97 1.15 -0.61 -0.33 1587.881 4054.02 7452.08
2.26 994.62 1.38 -10.82 0.97 0.20 -0.17 -0.96 1.15 -0.60 -0.33 1588.484 4054.02 7452.08
2.46 994.60 -5.00 8.16 4.15 0.17 -0.21 -0.97 1.14 -0.60 -0.32 1588.884 4054.02 7452.08
2.20 994.63 -19.98 -5.29 -7.41 0.17 -0.25 -0.95 1.14 -0.59 -0.25 1589.466 4054.02 7452.08
2.37 994.61 -3.31 39.07 -21.30 0.26 -0.25 -0.85 1.22 -0.60 -0.27 1589.89 4054.02 7452.08
2.63 994.58 5.10 -25.00 -11.65 0.49 -0.22 -0.81 1.21 -0.61 -0.28 1590.489 4054.02 7452.08
2.26 994.62 -15.51 36.30 -19.16 0.29 -0.33 -0.9 1.22 -0.61 -0.32 1590.892 4054.02 7452.08
2.05 994.65 23.57 43.46 15.72 0.25 -0.17 -0.84 1.19 -0.61 -0.33 1591.489 4054.02 7452.08
2.04 994.65 41.92 52.31 18.99 0.13 -0.13 -0.94 1.14 -0.61 -0.40 1591.892 4054.02 7452.08
2.66 994.58 -9.05 7.25 14.59 0.05 -0.05 -0.95 1.10 -0.60 -0.47 1592.483 4054.02 7452.08
2.68 994.57 -9.71 0.31 -8.74 0.02 -0.07 -0.98 1.05 -0.59 -0.44 1592.893 4054.02 7452.08
2.59 994.59 -63.37 57.16 -30.96 -0.06 -0.23 -0.63 1.20 -0.62 -0.34 1593.47 4054.02 7452.08
2.08 994.65 16.13 -7.32 1.21 0.11 0.23 -1.0 1.21 -0.60 -0.32 1593.895 4054.02 7452.08
2.05 994.65 1.01 0.31 11.12 0.27 -0.25 -0.89 1.19 -0.60 -0.33 1594.472 4054.02 7452.08
2.19 994.63 12.33 -24.01 11.97 0.21 -0.22 -0.9 1.19 -0.61 -0.34 1594.9 4054.02 7452.08
2.33 994.62 12.47 -11.91 1.47 0.28 -0.28 -0.93 1.17 -0.60 -0.33 1595.465 4054.02 7452.08
2.15 994.64 -0.57 4.96 2.49 0.28 -0.23 -0.94 1.17 -0.61 -0.34 1595.899 4054.02 7452.08
2.63 994.58 -1.00 -13.64 -5.22 0.28 -0.18 -0.89 1.18 -0.61 -0.34 1596.493 4054.02 7452.08
2.32 994.62 -13.62 -71.20 14.54 0.20 -0.22 -0.95 1.12 -0.58 -0.28 1596.905 4054.02 7452.08
2.76 994.57 -8.79 -91.46 44.45 0.13 -0.22 -1.06 1.14 -0.57 -0.21 1597.487 4054.02 7452.08
2.21 994.63 0.51 -33.14 -15.57 -0.11 0.03 -0.89 1.18 -0.57 -0.25 1597.906 4054.02 7452.08
2.27 994.62 19.46 3.35 3.33 -0.05 -0.21 -1.12 1.19 -0.55 -0.22 1598.459 4054.02 7452.08
2.22 994.63 -6.90 11.51 -10.63 -0.03 0.04 -1.06 1.21 -0.57 -0.26 1598.908 4054.02 7452.08
2.26 994.62 6.97 13.17 11.81 0.03 0.01 -0.9 1.24 -0.57 -0.28 1599.504 4054.02 7452.08
2.43 994.60 1.08 1.66 -3.51 -0.07 -0.06 -0.9 1.22 -0.52 -0.32 1599.908 4054.02 7452.08
2.11 994.64 10.18 -22.69 10.56 -0.06 -0.03 -0.95 1.27 -0.50 -0.29 1600.485 4054.02 7452.08
1.98 994.66 1.49 -36.20 -12.89 -0.26 -0.01 -1.02 1.25 -0.53 -0.27 1600.913 4054.02 7452.08
2.27 994.62 -15.30 -58.07 -50.09 0.11 0.07 -0.74 1.33 -0.53 -0.31 1601.51 4054.02 7452.08
2.35 994.61 4.92 -10.89 -0.68 0.05 0.10 -0.97 1.32 -0.54 -0.34 1601.912 4054.02 7452.08
2.30 994.62 4.24 -11.57 -5.35 0.04 0.11 -1.01 1.33 -0.54 -0.36 1602.493 4054.02 7452.08
2.49 994.60 -0.25 0.38 -12.71 -0.00 0.09 -0.96 1.36 -0.54 -0.37 1602.915 4054.02 7452.08
2.21 994.63 8.65 -20.54 12.21 0.09 -0.02 -0.92 1.39 -0.54 -0.41 1603.516 4054.02 7452.08
2.17 994.63 -15.11 -5.47 -4.01 -0.02 0.17 -1.04 1.37 -0.55 -0.42 1603.918 4054.02 7452.08
2.25 994.62 8.44 26.36 -5.78 0.07 0.06 -1.02 1.34 -0.57 -0.37 1604.494 4054.02 7452.08
1.80 994.68 -8.93 -17.36 -3.11 0.01 0.11 -1.06 1.37 -0.57 -0.35 1604.919 4054.02 7452.08
2.30 994.62 7.30 47.56 15.27 -0.01 0.13 -1.06 1.36 -0.58 -0.35 1605.476 4054.02 7452.08
2.80 994.56 -2.48 53.47 5.80 0.05 0.10 -1.01 1.30 -0.57 -0.24 1605.919 4054.02 7452.08
2.24 994.63 8.22 23.94 8.74 0.01 0.16 -1.0 1.21 -0.58 -0.23 1606.5 4054.02 7452.08
2.55 994.59 11.22 23.40 -3.28 -0.00 0.08 -1.06 1.21 -0.58 -0.27 1606.923 4054.02 7452.08
2.15 994.64 -15.95 10.66 6.26 0.12 0.19 -1.04 1.19 -0.58 -0.27 1607.502 4054.02 7452.08
2.63 994.58 8.98 30.90 17.94 -0.25 0.05 -0.93 1.07 -0.54 -0.25 1607.924 4054.02 7452.08
2.61 994.58 17.43 -22.60 -4.63 -0.14 0.03 -0.73 1.11 -0.55 -0.27 1608.504 4054.02 7452.08
2.30 994.62 -0.87 -31.06 8.51 -0.22 0.11 -1.24 1.12 -0.56 -0.29 1608.927 4054.02 7452.08
2.74 994.57 11.18 3.46 14.46 -0.16 -0.06 -1.01 1.06 -0.55 -0.26 1609.494 4054.02 7452.08
2.55 994.59 15.07 -12.07 18.28 -0.46 0.11 -0.9 1.03 -0.54 -0.26 1609.93 4054.02 7452.08
2.49 994.60 0.90 42.84 10.23 -0.43 0.07 -0.98 0.98 -0.53 -0.26 1610.512 4054.02 7452.08
2.35 994.61 7.87 -26.63 1.42 -0.44 0.13 -0.89 0.94 -0.51 -0.27 1610.931 4054.02 7452.08
1.94 994.66 6.51 -50.57 -8.02 -0.46 0.00 -0.8 1.04 -0.55 -0.22 1611.513 4054.02 7452.08
1.94 994.66 16.05 5.07 -7.43 -0.43 -0.03 -0.93 1.06 -0.54 -0.19 1611.934 4054.02 7452.08
2.27 994.62 2.56 6.03 3.03 -0.37 -0.12 -0.93 1.06 -0.55 -0.21 1612.496 4054.02 7452.08
2.55 994.59 5.34 -0.79 3.19 -0.37 -0.05 -0.95 1.07 -0.55 -0.20 1612.936 4054.02 7452.08
2.39 994.61 -0.44 1.93 -0.67 -0.39 -0.06 -0.93 1.07 -0.55 -0.21 1613.517 4054.02 7452.08
2.72 994.57 16.13 -1.77 7.22 -0.35 -0.06 -0.91 1.09 -0.56 -0.21 1613.938 4054.02 7452.08
2.33 994.62 2.98 -0.81 -1.58 -0.39 -0.07 -0.9 1.08 -0.57 -0.24 1614.534 4054.02 7452.08
1.91 994.67 -22.18 36.32 2.20 -0.29 0.03 -1.01 1.05 -0.55 -0.22 1614.941 4054.02 7452.08
2.67 994.58 26.77 -35.35 6.61 -0.44 -0.20 -1.01 1.07 -0.55 -0.20 1615.541 4054.02 7452.08
2.49 994.60 34.97 -7.44 24.57 -0.35 -0.01 -0.83 1.11 -0.58 -0.24 1615.943 4054.02 7452.08
2.21 994.63 -0.55 12.00 25.10 -0.57 0.11 -0.9 1.04 -0.58 -0.29 1616.521 4054.02 7452.08
1.45 994.72 -11.24 9.08 -1.73 -0.60 -0.01 -0.83 0.96 -0.53 -0.25 1616.946 4054.02 7452.08
2.33 994.62 -11.74 -5.19 -15.28 -0.69 0.09 -0.67 0.95 -0.52 -0.24 1617.51 4054.02 7452.08
2.06 994.65 -4.45 21.79 -1.97 -0.69 0.00 -0.87 0.95 -0.53 -0.23 1617.946 4054.02 7452.08
2.36 994.61 -7.87 14.35 3.54 -0.57 0.15 -0.81 0.91 -0.49 -0.23 1618.523 4054.02 7452.08
2.22 994.63 20.36 -14.11 19.58 -0.67 0.12 -0.79 0.90 -0.51 -0.27 1618.95 4054.02 7452.08
2.26 994.62 9.80 -0.45 6.27 -0.65 0.08 -0.73 0.89 -0.49 -0.26 1619.52 4054.02 7452.08
2.11 994.64 -35.73 28.20 13.19 -0.69 0.29 -0.61 0.84 -0.46 -0.29 1619.951 4054.02 7452.08
2.63 994.58 6.42 -17.88 8.99 -0.86 0.19 -0.67 0.78 -0.40 -0.30 1620.509 4054.02 7452.08
2.99 994.54 6.83 10.11 1.33 -0.83 0.15 -0.59 0.80 -0.40 -0.25 1620.951 4054.02 7452.08
2.55 994.59 -15.57 23.30 -6.26 -0.85 0.04 -0.58 0.76 -0.36 -0.26 1621.551 4054.02 7452.08
2.85 994.56 -1.65 2.42 -5.38 -0.73 0.19 -0.64 0.77 -0.38 -0.26 1621.953 4054.02 7452.08
2.56 994.59 5.24 -16.76 -12.66 -0.69 0.23 -0.65 0.78 -0.40 -0.29 1622.548 4054.02 7452.08
2.17 994.63 -5.59 -0.86 5.62 -0.77 0.10 -0.65 0.78 -0.39 -0.26 1622.956 4054.02 7452.08
2.78 994.56 -0.09 1.04 0.45 -0.75 0.12 -0.64 0.78 -0.39 -0.26 1623.508 4054.02 7452.08
2.78 994.56 2.91 -2.53 -0.04 -0.75 0.13 -0.66 0.78 -0.39 -0.25 1623.957 4054.01 7452.08
2.70 994.57 4.21 -2.95 -2.40 -0.74 0.10 -0.65 0.79 -0.39 -0.25 1624.54 4054.01 7452.08
2.22 994.63 1.08 2.83 1.58 -0.75 0.12 -0.66 0.79 -0.39 -0.25 1624.957 4054.01 7452.08
2.53 994.59 3.11 4.80 -2.63 -0.76 0.06 -0.66 0.78 -0.39 -0.25 1625.56 4054.01 7452.08
2.58 994.59 4.80 9.77 -25.04 -0.60 0.12 -0.71 0.85 -0.45 -0.24 1625.961 4054.01 7452.08
2.86 994.55 -10.68 -13.41 4.68 -0.62 0.03 -0.75 0.87 -0.46 -0.20 1626.552 4054.01 7452.08
2.49 994.60 9.59 1.40 -8.14 -0.65 -0.10 -0.8 0.87 -0.44 -0.19 1626.963 4054.01 7452.08
2.48 994.60 5.28 -24.99 7.32 -0.70 0.08 -0.79 0.87 -0.45 -0.19 1627.558 4054.01 7452.08
2.00 994.66 11.29 8.65 4.32 -0.64 0.03 -0.79 0.90 -0.49 -0.23 1627.964 4054.01 7452.08
2.49 994.60 -16.08 32.45 -3.34 -0.68 0.18 -0.71 0.83 -0.45 -0.25 1628.542 4054.01 7452.08
