alt barom GPS_La GPS_Lo Gx Gy Gz Ax Ay Az Mx My Mz t
2.75 1005.45 4053.99 7452.05 2.27 -0.71 0.52 -0.04 0.04 1.0 1.06 0.37 -0.18 1013.624
2.91 1005.43 4053.99 7452.05 2.36 -1.44 0.67 -0.05 0.04 1.0 1.06 0.37 -0.19 1014.125
3.05 1005.41 4053.99 7452.05 2.07 -0.74 0.76 -0.05 0.04 1.0 1.06 0.37 -0.20 1014.626
3.47 1005.36 4053.99 7452.05 1.90 0.60 0.56 -0.05 0.03 1.0 1.06 0.36 -0.19 1015.127
3.24 1005.39 4053.99 7452.05 2.04 0.82 0.75 -0.06 0.03 1.0 1.05 0.37 -0.19 1015.627
2.51 1005.47 4053.99 7452.05 1.83 1.44 0.87 -0.05 0.03 1.01 1.06 0.37 -0.19 1016.128
3.53 1005.35 4053.99 7452.05 1.99 -0.40 1.06 -0.05 0.02 1.0 1.06 0.37 -0.19 1016.63
2.97 1005.42 4053.99 7452.05 2.09 1.01 0.67 -0.05 0.03 1.0 1.06 0.37 -0.19 1017.131
3.13 1005.40 4053.99 7452.05 1.97 2.51 0.65 -0.04 0.03 1.0 1.06 0.37 -0.19 1017.631
3.07 1005.41 4053.99 7452.05 1.96 2.34 0.61 -0.05 0.04 1.0 1.06 0.37 -0.19 1018.132
3.26 1005.38 4053.99 7452.05 2.14 -0.16 0.67 -0.04 0.04 1.0 1.06 0.37 -0.19 1018.634
3.14 1005.40 4053.99 7452.05 2.16 -0.93 0.50 -0.05 0.03 1.0 1.05 0.37 -0.19 1019.136
2.67 1005.45 4053.99 7452.05 2.25 -0.35 0.52 -0.05 0.03 1.0 1.06 0.37 -0.19 1019.636
2.71 1005.45 4053.99 7452.05 1.99 -0.26 0.73 -0.06 0.02 1.0 1.06 0.37 -0.18 1020.137
3.09 1005.41 4053.99 7452.05 2.12 1.16 0.53 -0.05 0.03 1.0 1.06 0.37 -0.18 1020.637
3.29 1005.38 4053.99 7452.05 2.07 1.09 0.77 -0.05 0.03 1.0 1.06 0.36 -0.19 1021.138
3.35 1005.37 4053.99 7452.05 2.04 1.27 0.54 -0.05 0.04 1.0 1.06 0.37 -0.18 1021.639
2.76 1005.44 4053.99 7452.05 2.00 2.00 0.68 -0.04 0.03 1.0 1.06 0.37 -0.19 1022.14
2.89 1005.43 4053.99 7452.05 2.04 0.29 0.68 -0.05 0.04 1.0 1.06 0.37 -0.18 1022.642
3.44 1005.36 4053.99 7452.05 2.05 0.06 0.44 -0.04 0.03 1.0 1.06 0.36 -0.19 1023.143
3.23 1005.39 4053.99 7452.05 2.28 -0.01 0.59 -0.05 0.04 1.0 1.06 0.37 -0.19 1023.645
3.64 1005.34 4053.99 7452.05 2.26 0.88 0.70 -0.05 0.03 1.0 1.05 0.36 -0.19 1024.145
3.45 1005.36 4053.99 7452.05 2.07 0.26 0.81 -0.05 0.03 1.0 1.06 0.37 -0.19 1024.647
6.14 1005.04 4053.99 7452.05 8.93 -18.35 -6.65 -0.07 0.80 2.0 1.03 0.37 -0.19 1025.15
19.46 1003.46 4053.99 7452.05 11.71 -35.45 -43.76 0.30 -0.41 2.0 0.94 0.32 -0.12 1025.654
38.09 1001.24 4053.99 7452.05 -40.78 -139.38 -25.58 0.21 -0.27 2.0 1.11 0.34 -0.16 1026.157
55.33 999.19 4053.99 7452.05 18.58 -21.90 27.25 0.03 -0.09 1.01 1.17 0.37 -0.28 1026.655
68.73 997.61 4053.99 7452.05 1.71 -24.53 -3.26 -0.06 -0.06 0.1 1.26 0.33 -0.26 1027.155
82.90 995.93 4053.99 7452.05 15.86 -3.19 7.39 0.03 0.02 -0.03 1.25 0.34 -0.28 1027.652
92.68 994.77 4053.99 7452.06 16.12 -2.12 8.07 -0.05 -0.00 -0.05 1.30 0.29 -0.23 1028.155
101.81 993.69 4053.99 7452.06 14.74 -5.91 0.55 0.00 0.01 -0.03 1.30 0.28 -0.20 1028.656
108.59 992.89 4053.99 7452.07 11.31 -4.57 18.90 -0.01 -0.01 -0.02 1.34 0.23 -0.18 1029.159
111.75 992.52 4053.99 7452.07 13.33 -6.07 6.29 -0.02 0.00 -0.01 1.40 0.17 -0.18 1029.658
115.18 992.12 4053.99 7452.08 31.57 -4.01 5.59 0.01 -0.03 -0.01 1.42 0.12 -0.14 1030.159
113.88 992.27 4053.99 7452.08 64.81 0.60 7.95 1.46 0.57 0.46 1.47 0.04 -0.13 1030.66
119.44 991.61 4053.99 7452.09 -85.27 11.33 3.49 -0.07 -0.30 0.0 1.43 0.11 -0.14 1031.164
120.02 991.55 4053.99 7452.09 1.48 115.32 48.50 -0.09 -0.27 -0.04 1.39 0.09 -0.08 1031.664
112.80 992.40 4053.99 7452.10 62.09 186.10 -100.48 -0.35 -0.02 -0.08 0.85 -0.20 0.03 1032.168
96.34 994.34 4053.99 7452.10 -120.24 89.98 -160.26 -0.14 0.25 -0.32 0.93 -0.57 -0.25 1032.67
94.87 994.51 4053.99 7452.11 -52.02 119.62 74.85 0.38 -0.59 -0.06 0.86 -0.20 0.05 1033.167
91.88 994.87 4053.99 7452.11 104.69 74.32 58.95 -0.64 -0.14 -0.05 0.73 0.26 -0.23 1033.668
68.04 997.69 4053.99 7452.12 82.26 -244.08 -286.72 -0.25 0.42 -0.87 0.93 -0.40 0.00 1034.171
86.97 995.45 4053.99 7452.12 -2.08 -262.54 69.74 -0.62 0.57 0.01 0.94 -0.12 -0.79 1034.673
46.07 1000.29 4053.99 7452.14 -250.76 248.17 82.10 0.26 0.10 -0.39 1.05 -0.62 -0.26 1035.173
13.54 1004.16 4053.99 7452.14 -39.83 119.70 137.57 0.31 0.50 -0.55 1.33 -0.31 -0.72 1035.674
32.41 1001.92 4053.99 7452.15 -86.08 -57.54 112.66 -1.00 -0.93 -0.25 0.64 -0.10 -0.16 1036.177
19.69 1003.43 4053.99 7452.15 286.68 -148.00 -140.22 -0.14 -0.40 -0.78 1.08 -0.47 -0.02 1036.681
1.84 1005.55 4053.99 7452.16 71.69 286.68 36.06 0.35 0.16 0.31 0.61 -0.15 -0.40 1037.175
0.52 1005.71 4053.99 7452.16 7.83 84.04 1.67 -2.00 0.05 -0.21 0.69 -0.19 -0.59 1037.673
0.66 1005.69 4053.99 7452.17 2.18 0.38 0.38 -0.99 0.23 -0.1 0.71 -0.19 -0.62 1038.173
0.89 1005.67 4053.99 7452.17 2.06 0.66 0.53 -0.99 0.23 -0.1 0.71 -0.19 -0.61 1038.674
0.73 1005.69 4053.99 7452.18 1.79 0.46 0.65 -0.99 0.23 -0.1 0.71 -0.19 -0.61 1039.175
0.20 1005.75 4053.99 7452.18 2.14 0.40 0.60 -0.99 0.23 -0.1 0.70 -0.19 -0.60 1039.676
0.75 1005.68 4053.99 7452.18 1.98 0.27 0.51 -0.99 0.23 -0.1 0.70 -0.19 -0.62 1040.178
0.46 1005.72 4053.99 7452.18 2.01 0.40 0.40 -0.99 0.23 -0.1 0.70 -0.19 -0.60 1040.679
0.40 1005.73 4054.00 7452.18 2.12 0.36 0.59 -1.01 0.23 -0.11 0.70 -0.19 -0.61 1041.18
0.55 1005.71 4054.00 7452.18 2.17 0.26 0.85 -0.99 0.23 -0.1 0.70 -0.19 -0.61 1041.681
0.83 1005.67 4054.00 7452.16 2.02 0.51 0.65 -0.99 0.23 -0.1 0.71 -0.19 -0.61 1042.183
0.58 1005.70 4054.00 7452.16 2.05 0.15 0.52 -0.99 0.23 -0.1 0.71 -0.19 -0.61 1042.683
1.26 1005.62 4054.00 7452.17 1.67 -0.06 0.64 -1.01 0.23 -0.09 0.70 -0.19 -0.60 1043.185
0.48 1005.72 4054.00 7452.17 2.00 0.33 0.41 -0.99 0.23 -0.1 0.71 -0.19 -0.61 1043.685
0.26 1005.74 4053.99 7452.14 1.86 0.29 0.53 -0.99 0.23 -0.1 0.71 -0.19 -0.60 1044.187
0.61 1005.70 4053.99 7452.14 1.65 0.42 0.50 -0.99 0.23 -0.1 0.71 -0.18 -0.61 1044.687
0.79 1005.68 4053.99 7452.13 2.04 0.24 0.49 -0.99 0.23 -0.1 0.70 -0.19 -0.61 1045.188
0.54 1005.71 4053.99 7452.13 2.00 0.30 0.52 -0.99 0.23 -0.1 0.70 -0.19 -0.61 1045.689
0.95 1005.66 4053.99 7452.12 1.77 0.31 0.71 -0.98 0.23 -0.1 0.70 -0.19 -0.61 1046.191
1.14 1005.64 4053.99 7452.12 2.09 0.32 0.54 -0.99 0.23 -0.1 0.70 -0.18 -0.62 1046.691
0.51 1005.71 4053.98 7452.11 1.86 0.29 0.57 -0.99 0.23 -0.1 0.70 -0.19 -0.62 1047.192
1.07 1005.65 4053.98 7452.11 2.11 0.38 0.84 -0.99 0.23 -0.1 0.71 -0.19 -0.61 1047.693
0.62 1005.70 4053.98 7452.11 1.81 0.48 0.68 -0.98 0.23 -0.11 0.71 -0.19 -0.61 1048.195
0.94 1005.66 4053.98 7452.11 1.98 0.37 0.32 -0.99 0.23 -0.1 0.71 -0.19 -0.61 1048.695
0.34 1005.73 4053.98 7452.11 2.15 0.53 0.40 -0.98 0.23 -0.09 0.70 -0.18 -0.60 1049.196
0.69 1005.69 4053.98 7452.11 2.06 0.35 0.59 -0.99 0.23 -0.1 0.70 -0.19 -0.60 1049.697
0.20 1005.75 4053.98 7452.11 1.87 0.39 0.80 -0.99 0.23 -0.1 0.70 -0.19 -0.61 1050.199
0.49 1005.72 4053.98 7452.11 1.86 0.46 0.63 -0.99 0.23 -0.1 0.71 -0.19 -0.60 1050.699
0.65 1005.70 4053.98 7452.11 1.95 0.52 0.70 -0.99 0.23 -0.1 0.71 -0.19 -0.61 1051.2
0.75 1005.68 4053.98 7452.11 1.73 0.29 0.68 -0.99 0.23 -0.1 0.70 -0.19 -0.61 1051.701
0.86 1005.67 4053.98 7452.11 2.21 0.32 0.73 -0.97 0.22 -0.11 0.71 -0.19 -0.61 1052.203
0.62 1005.70 4053.98 7452.11 1.87 0.29 0.80 -0.99 0.23 -0.1 0.70 -0.19 -0.62 1052.703
0.47 1005.72 4053.98 7452.11 1.72 0.52 0.63 -0.98 0.23 -0.1 0.70 -0.19 -0.60 1053.204
0.90 1005.67 4053.98 7452.11 2.22 0.29 0.48 -0.99 0.23 -0.1 0.71 -0.19 -0.61 1053.705
0.71 1005.69 4053.98 7452.11 2.07 0.25 0.71 -0.98 0.23 -0.1 0.70 -0.19 -0.61 1054.206
0.59 1005.70 4053.98 7452.11 2.07 0.21 0.52 -0.99 0.23 -0.1 0.71 -0.19 -0.62 1054.707
0.87 1005.67 4053.98 7452.11 2.04 0.32 0.50 -0.99 0.22 -0.1 0.71 -0.19 -0.62 1055.208
1.08 1005.64 4053.98 7452.11 2.04 0.38 0.73 -0.99 0.23 -0.09 0.70 -0.20 -0.61 1055.709
0.59 1005.70 4053.98 7452.11 2.20 0.12 0.55 -0.98 0.23 -0.09 0.71 -0.19 -0.61 1056.21
-0.32 1005.81 4053.98 7452.11 2.09 0.03 0.61 -0.99 0.23 -0.09 0.71 -0.19 -0.61 1056.712
0.31 1005.74 4053.98 7452.11 2.12 0.40 0.57 -0.98 0.23 -0.09 0.70 -0.19 -0.62 1057.212
0.41 1005.72 4053.98 7452.11 1.78 0.49 0.69 -0.99 0.24 -0.1 0.70 -0.19 -0.62 1057.714
0.80 1005.68 4053.98 7452.11 2.11 0.45 0.68 -0.99 0.23 -0.09 0.71 -0.19 -0.62 1058.215
1.05 1005.65 4053.98 7452.11 2.03 0.13 0.74 -0.98 0.22 -0.09 0.70 -0.19 -0.62 1058.716
0.71 1005.69 4053.98 7452.11 2.02 0.37 0.75 -0.99 0.23 -0.1 0.71 -0.19 -0.61 1059.217
0.79 1005.68 4053.98 7452.11 2.03 0.33 0.71 -0.99 0.23 -0.1 0.71 -0.19 -0.62 1059.719
0.69 1005.69 4053.98 7452.11 1.92 0.39 0.77 -0.99 0.23 -0.1 0.71 -0.19 -0.62 1060.219
0.89 1005.67 4053.98 7452.11 1.90 0.10 0.68 -0.99 0.23 -0.1 0.71 -0.19 -0.61 1060.72
0.40 1005.73 4053.98 7452.11 4.30 0.53 0.66 -0.99 0.23 -0.1 0.71 -0.19 -0.61 1061.221
0.41 1005.72 4053.98 7452.11 2.14 0.64 0.63 -0.98 0.24 -0.1 0.71 -0.19 -0.62 1061.723
0.80 1005.68 4053.98 7452.11 2.02 0.20 0.79 -0.99 0.23 -0.1 0.71 -0.19 -0.61 1062.223
0.14 1005.76 4053.98 7452.11 2.00 0.52 0.73 -0.99 0.23 -0.1 0.70 -0.20 -0.61 1062.724
-0.05 1005.78 4053.98 7452.11 1.91 0.38 0.51 -0.98 0.23 -0.1 0.71 -0.19 -0.62 1063.226
0.67 1005.69 4053.98 7452.11 2.04 0.45 0.55 -0.99 0.23 -0.1 0.71 -0.19 -0.61 1063.727
1.16 1005.64 4053.98 7452.11 2.15 0.25 0.68 -0.99 0.23 -0.1 0.71 -0.20 -0.61 1064.227
0.51 1005.71 4053.98 7452.11 2.25 0.51 0.45 -0.99 0.23 -0.1 0.71 -0.19 -0.62 1064.728
0.84 1005.67 4053.98 7452.11 1.84 0.22 0.64 -0.99 0.23 -0.1 0.71 -0.19 -0.61 1065.229
-0.08 1005.78 4053.98 7452.11 2.35 0.30 0.76 -0.99 0.24 -0.09 0.71 -0.19 -0.61 1065.732
1.01 1005.65 4053.98 7452.11 2.16 0.34 0.75 -0.99 0.23 -0.1 0.71 -0.19 -0.62 1066.231
1.07 1005.65 4053.98 7452.11 2.31 0.51 0.62 -0.99 0.23 -0.09 0.71 -0.18 -0.62 1066.732
-0.35 1005.81 4053.98 7452.11 2.02 0.29 0.99 -0.99 0.24 -0.1 0.71 -0.19 -0.62 1067.234
0.42 1005.72 4053.98 7452.11 2.05 0.13 0.70 -0.98 0.23 -0.1 0.71 -0.19 -0.61 1067.735
0.17 1005.75 4053.98 7452.11 1.91 0.17 0.60 -0.99 0.23 -0.1 0.71 -0.19 -0.61 1068.235
0.52 1005.71 4053.98 7452.11 2.31 0.35 0.62 -0.99 0.22 -0.1 0.71 -0.19 -0.62 1068.736
0.32 1005.74 4053.98 7452.11 1.84 0.17 0.90 -0.99 0.24 -0.1 0.71 -0.19 -0.62 1069.237
0.42 1005.72 4053.98 7452.11 2.32 0.25 0.60 -0.99 0.24 -0.1 0.71 -0.19 -0.62 1069.739
0.83 1005.67 4053.98 7452.11 2.01 0.38 0.78 -1.00 0.25 -0.1 0.71 -0.19 -0.61 1070.239
0.10 1005.76 4053.98 7452.11 2.03 0.07 0.72 -0.97 0.22 -0.1 0.71 -0.19 -0.62 1070.74
0.44 1005.72 4053.98 7452.11 2.23 0.04 0.90 -0.99 0.23 -0.1 0.71 -0.19 -0.61 1071.241
0.47 1005.72 4053.98 7452.11 1.95 0.17 0.63 -0.97 0.24 -0.1 0.71 -0.19 -0.62 1071.742
0.57 1005.71 4053.98 7452.11 2.08 0.08 0.65 -0.99 0.24 -0.1 0.71 -0.19 -0.61 1072.243
0.32 1005.74 4053.98 7452.11 2.20 0.39 0.64 -1.00 0.23 -0.09 0.71 -0.19 -0.62 1072.744
0.28 1005.74 4053.98 7452.11 2.07 0.24 0.69 -0.99 0.23 -0.1 0.71 -0.19 -0.62 1073.245
0.63 1005.70 4053.98 7452.11 2.27 0.39 0.84 -0.99 0.23 -0.1 0.71 -0.19 -0.63 1073.746
0.66 1005.69 4053.98 7452.11 2.14 0.62 0.60 -0.99 0.24 -0.1 0.71 -0.19 -0.62 1074.247
0.53 1005.71 4053.98 7452.11 1.94 0.28 0.75 -0.99 0.22 -0.09 0.71 -0.19 -0.62 1074.748
0.85 1005.67 4053.98 7452.11 2.00 0.36 0.70 -0.99 0.23 -0.1 0.71 -0.19 -0.62 1075.25
0.81 1005.68 4053.98 7452.11 2.17 0.67 0.74 -0.99 0.23 -0.09 0.71 -0.19 -0.62 1075.751
0.73 1005.69 4053.98 7452.11 2.27 0.42 0.51 -0.99 0.24 -0.1 0.71 -0.19 -0.62 1076.252
0.64 1005.70 4053.98 7452.11 2.06 0.26 0.56 -0.98 0.23 -0.1 0.71 -0.19 -0.62 1076.753
0.71 1005.69 4053.98 7452.11 2.11 0.33 0.80 -0.99 0.23 -0.1 0.71 -0.18 -0.62 1077.255
0.92 1005.66 4053.98 7452.11 2.14 0.56 0.74 -0.99 0.23 -0.09 0.70 -0.18 -0.62 1077.755
0.42 1005.72 4053.98 7452.11 2.09 0.12 0.53 -0.99 0.24 -0.1 0.71 -0.19 -0.62 1078.256
0.43 1005.72 4053.98 7452.11 2.26 0.35 0.63 -1.00 0.23 -0.1 0.72 -0.19 -0.60 1078.757
0.48 1005.72 4053.98 7452.11 1.90 0.18 0.80 -0.99 0.24 -0.1 0.71 -0.19 -0.61 1079.259
0.34 1005.73 4053.98 7452.11 2.40 0.51 0.50 -0.98 0.24 -0.1 0.71 -0.19 -0.62 1079.785
0.32 1005.74 4053.98 7452.11 2.35 0.18 0.78 -0.99 0.23 -0.1 0.71 -0.19 -0.62 1080.26
0.74 1005.68 4053.98 7452.11 2.20 0.38 0.77 -0.99 0.23 -0.09 0.71 -0.19 -0.62 1080.761
0.09 1005.76 4053.98 7452.11 0.04 0.11 0.52 -0.99 0.23 -0.1 0.71 -0.19 -0.62 1081.263
0.71 1005.69 4053.98 7452.11 1.80 0.34 0.74 -0.98 0.23 -0.11 0.71 -0.19 -0.61 1081.763
0.67 1005.69 4053.98 7452.11 2.28 0.36 0.61 -0.99 0.23 -0.1 0.71 -0.19 -0.61 1082.264
1.08 1005.64 4053.98 7452.11 2.36 0.31 0.69 -0.98 0.23 -0.1 0.71 -0.19 -0.62 1082.765
0.56 1005.71 4053.98 7452.11 2.09 0.26 0.52 -0.99 0.23 -0.1 0.71 -0.19 -0.62 1083.267
0.49 1005.71 4053.98 7452.11 2.03 0.45 0.83 -0.98 0.23 -0.09 0.71 -0.19 -0.62 1083.792
0.43 1005.72 4053.98 7452.11 1.99 0.33 0.52 -0.99 0.24 -0.09 0.71 -0.19 -0.62 1084.268
0.13 1005.76 4053.98 7452.11 1.88 0.20 0.38 -0.98 0.22 -0.1 0.71 -0.19 -0.62 1084.769
0.60 1005.70 4053.98 7452.11 1.92 0.43 1.08 -0.99 0.23 -0.1 0.70 -0.19 -0.61 1085.271
0.93 1005.66 4053.98 7452.11 2.08 0.37 0.72 -0.98 0.23 -0.1 0.71 -0.19 -0.61 1085.771
0.40 1005.73 4053.98 7452.11 2.16 0.26 0.67 -0.99 0.23 -0.09 0.71 -0.19 -0.62 1086.272
0.86 1005.67 4053.98 7452.11 2.28 0.34 0.76 -1.00 0.23 -0.09 0.71 -0.19 -0.62 1086.799
0.88 1005.67 4053.98 7452.11 1.86 0.46 0.72 -0.99 0.23 -0.1 0.71 -0.19 -0.62 1087.275
0.49 1005.72 4053.98 7452.11 2.19 0.42 0.87 -0.99 0.23 -0.1 0.70 -0.19 -0.62 1087.832
1.03 1005.65 4053.98 7452.11 1.86 0.41 0.74 -0.99 0.23 -0.1 0.70 -0.19 -0.62 1088.276
0.52 1005.71 4053.98 7452.11 2.07 0.31 0.60 -0.99 0.23 -0.1 0.71 -0.19 -0.61 1088.799
0.30 1005.74 4053.98 7452.11 2.07 0.03 0.65 -0.99 0.23 -0.1 0.71 -0.19 -0.61 1089.278
0.61 1005.70 4053.98 7452.11 1.90 0.25 0.65 -0.99 0.23 -0.1 0.71 -0.19 -0.61 1089.804
0.40 1005.73 4053.98 7452.11 2.09 0.42 0.62 -0.99 0.23 -0.09 0.71 -0.19 -0.61 1090.28
-0.21 1005.80 4053.98 7452.11 1.93 0.25 0.70 -0.99 0.23 -0.09 0.71 -0.19 -0.61 1090.809
0.54 1005.71 4053.98 7452.11 1.93 0.33 0.61 -0.99 0.23 -0.1 0.71 -0.19 -0.62 1091.282
0.67 1005.69 4053.98 7452.11 2.11 0.11 0.50 -0.99 0.23 -0.09 0.71 -0.19 -0.61 1091.81
0.50 1005.71 4053.98 7452.11 2.08 0.23 0.56 -0.99 0.24 -0.1 0.71 -0.19 -0.61 1092.284
0.51 1005.71 4053.98 7452.11 2.03 0.18 0.68 -0.99 0.23 -0.1 0.71 -0.18 -0.61 1092.813
0.92 1005.66 4053.98 7452.11 2.03 0.40 0.68 -0.99 0.23 -0.09 0.71 -0.19 -0.62 1093.287
0.43 1005.72 4053.98 7452.11 2.07 0.40 0.73 -0.99 0.23 -0.1 0.71 -0.19 -0.61 1093.821
1.01 1005.65 4053.98 7452.11 2.00 0.25 0.52 -0.99 0.23 -0.1 0.71 -0.19 -0.61 1094.289
1.02 1005.65 4053.98 7452.11 2.16 0.52 0.70 -0.99 0.23 -0.1 0.71 -0.19 -0.61 1094.791
1.01 1005.65 4053.98 7452.11 2.03 0.29 0.63 -0.99 0.23 -0.09 0.71 -0.19 -0.61 1095.291
0.21 1005.75 4053.98 7452.11 2.07 0.56 0.69 -0.99 0.23 -0.1 0.70 -0.18 -0.61 1095.792
0.31 1005.74 4053.98 7452.11 2.00 0.45 0.75 -0.99 0.23 -0.1 0.71 -0.19 -0.60 1096.293
0.69 1005.69 4053.98 7452.11 2.05 0.48 0.60 -0.99 0.23 -0.1 0.71 -0.19 -0.61 1096.796
0.79 1005.68 4053.98 7452.11 2.24 0.45 0.38 -0.99 0.23 -0.1 0.71 -0.19 -0.61 1097.295
0.75 1005.68 4053.98 7452.11 2.13 0.22 0.51 -0.99 0.24 -0.1 0.71 -0.19 -0.61 1097.861
0.96 1005.66 4053.98 7452.11 1.97 0.29 0.62 -0.99 0.23 -0.09 0.71 -0.19 -0.61 1098.297
0.36 1005.73 4053.98 7452.11 1.95 0.27 0.54 -0.99 0.23 -0.09 0.71 -0.20 -0.61 1098.799
0.66 1005.69 4053.98 7452.11 4.46 0.49 0.65 -0.99 0.23 -0.1 0.71 -0.19 -0.62 1099.299
0.61 1005.70 4053.98 7452.11 2.28 0.40 0.47 -0.99 0.23 -0.1 0.71 -0.19 -0.61 1099.807
0.54 1005.71 4053.98 7452.11 1.91 0.18 0.65 -0.99 0.23 -0.1 0.71 -0.19 -0.61 1100.301
0.73 1005.69 4053.98 7452.11 2.15 0.32 0.81 -1.00 0.23 -0.09 0.71 -0.19 -0.61 1100.881
0.48 1005.72 4053.98 7452.11 0.10 0.43 0.64 -0.99 0.23 -0.1 0.71 -0.19 -0.61 1101.303
0.19 1005.75 4053.98 7452.11 1.76 0.29 0.88 -0.98 0.23 -0.1 0.71 -0.19 -0.62 1101.884
0.55 1005.71 4053.98 7452.11 2.10 0.52 0.64 -0.99 0.23 -0.09 0.71 -0.20 -0.62 1102.305
0.35 1005.73 4053.98 7452.11 2.13 0.42 0.58 -0.99 0.23 -0.1 0.71 -0.19 -0.61 1102.861
0.15 1005.76 4053.98 7452.11 2.33 0.34 0.65 -0.99 0.23 -0.1 0.71 -0.19 -0.61 1103.307
0.27 1005.74 4053.98 7452.11 2.09 0.50 0.50 -0.99 0.23 -0.1 0.71 -0.19 -0.61 1103.809
0.07 1005.76 4053.98 7452.11 2.23 0.38 0.77 -0.99 0.23 -0.09 0.71 -0.19 -0.61 1104.309
0.31 1005.74 4053.98 7452.11 2.00 0.31 0.58 -0.98 0.23 -0.1 0.71 -0.19 -0.61 1104.818
0.57 1005.71 4053.98 7452.11 1.99 0.20 0.57 -0.99 0.23 -0.09 0.71 -0.19 -0.61 1105.311
0.58 1005.70 4053.98 7452.11 2.18 0.14 0.76 -0.98 0.23 -0.09 0.71 -0.19 -0.61 1105.813
0.10 1005.76 4053.98 7452.11 2.26 0.28 0.61 -0.99 0.23 -0.09 0.71 -0.19 -0.61 1106.313
0.41 1005.72 4053.98 7452.11 1.95 0.34 0.62 -0.99 0.22 -0.1 0.71 -0.19 -0.61 1106.842
0.54 1005.71 4053.98 7452.11 2.11 0.31 0.51 -0.99 0.23 -0.1 0.71 -0.19 -0.62 1107.315
0.22 1005.75 4053.98 7452.11 2.10 0.60 0.57 -0.98 0.23 -0.11 0.71 -0.19 -0.61 1107.894
0.42 1005.72 4053.98 7452.11 2.24 0.47 0.61 -0.99 0.24 -0.1 0.71 -0.19 -0.61 1108.317
0.99 1005.66 4053.98 7452.11 2.21 0.45 0.74 -1.00 0.22 -0.09 0.71 -0.18 -0.61 1108.897
0.66 1005.69 4053.98 7452.11 1.81 0.55 0.67 -0.99 0.23 -0.1 0.71 -0.18 -0.61 1109.319
0.75 1005.68 4053.98 7452.11 2.03 0.45 0.62 -1.00 0.23 -0.1 0.71 -0.19 -0.61 1109.898
0.72 1005.69 4053.98 7452.11 2.28 0.39 0.75 -0.99 0.23 -0.09 0.71 -0.19 -0.61 1110.322
0.46 1005.72 4053.98 7452.11 2.14 0.17 0.65 -0.99 0.23 -0.1 0.71 -0.19 -0.61 1110.903
0.64 1005.70 4053.98 7452.11 2.16 0.10 0.61 -0.99 0.23 -0.09 0.71 -0.19 -0.61 1111.324
0.16 1005.75 4053.98 7452.11 2.02 0.54 0.80 -1.00 0.23 -0.11 0.71 -0.19 -0.61 1111.917
0.39 1005.73 4053.98 7452.11 2.06 0.52 0.40 -0.99 0.23 -0.1 0.71 -0.19 -0.61 1112.327
0.48 1005.72 4053.98 7452.11 1.99 0.35 0.61 -0.98 0.23 -0.11 0.71 -0.19 -0.61 1112.924
1.41 1005.61 4053.98 7452.11 2.12 0.44 0.76 -0.99 0.24 -0.09 0.71 -0.20 -0.62 1113.328
0.75 1005.68 4053.98 7452.11 2.16 0.47 0.71 -0.98 0.23 -0.11 0.71 -0.19 -0.61 1113.926
0.62 1005.70 4053.98 7452.11 1.83 0.09 0.77 -1.01 0.23 -0.09 0.70 -0.19 -0.61 1114.331
0.45 1005.72 4053.98 7452.11 1.78 0.85 0.68 -1.03 0.26 -0.09 0.70 -0.19 -0.61 1114.928
0.34 1005.73 4053.98 7452.11 -1.90 11.04 2.34 -0.80 0.58 -0.32 0.92 -0.29 -0.74 1115.334
0.59 1005.70 4053.98 7452.11 -14.03 26.40 -17.38 -0.57 0.41 -0.27 0.93 -0.29 -0.75 1115.891
0.87 1005.67 4053.98 7452.11 1.15 0.55 1.09 -0.66 0.95 -0.13 0.97 -0.22 -0.77 1116.335
0.31 1005.74 4053.98 7452.11 2.03 0.60 0.97 -0.65 0.78 -0.15 0.97 -0.22 -0.78 1116.89
0.46 1005.72 4053.98 7452.11 2.13 -0.21 0.47 -0.65 0.80 -0.13 0.98 -0.22 -0.78 1117.337
0.37 1005.73 4053.98 7452.11 2.36 0.89 0.88 -0.64 0.77 -0.12 0.97 -0.22 -0.78 1117.916
0.68 1005.69 4053.98 7452.11 0.80 1.39 -0.89 -0.64 0.81 -0.11 0.96 -0.22 -0.78 1118.34
0.02 1005.77 4053.98 7452.11 -27.15 41.33 -17.70 -0.53 0.61 -0.03 1.00 -0.24 -0.78 1118.904
1.27 1005.62 4053.98 7452.11 -70.51 16.72 -30.00 -0.30 0.63 -0.58 1.14 -0.49 -0.67 1119.345
0.96 1005.66 4053.98 7452.11 -24.82 15.09 -8.76 -0.14 0.37 -0.99 1.27 -0.59 -0.51 1119.864
1.51 1005.59 4053.98 7452.11 -15.02 13.55 -29.29 -0.12 0.05 -0.78 1.31 -0.61 -0.41 1120.348
2.24 1005.51 4053.98 7452.11 9.32 -23.14 -10.43 0.17 0.20 -0.89 1.40 -0.55 -0.43 1120.91
2.27 1005.50 4053.98 7452.11 22.01 51.25 75.37 0.19 0.18 -0.81 1.39 -0.53 -0.49 1121.346
2.43 1005.48 4053.98 7452.11 -11.70 16.27 -53.10 -0.06 0.43 -0.74 1.29 -0.59 -0.46 1121.939
2.04 1005.53 4053.98 7452.11 111.19 -149.35 28.44 -0.37 1.73 -0.21 1.33 -0.23 -0.74 1122.353
2.08 1005.53 4053.98 7452.11 11.65 -10.04 -1.44 -0.26 0.98 -0.05 1.16 -0.11 -0.80 1122.947
1.41 1005.61 4053.98 7452.11 15.57 -6.27 7.80 -0.15 1.06 0.16 1.19 -0.08 -0.80 1123.351
1.85 1005.55 4053.98 7452.11 1.41 -16.05 -1.83 -0.25 1.01 0.2 1.16 -0.07 -0.81 1123.917
2.37 1005.49 4053.98 7452.11 -6.53 6.96 2.51 -0.42 0.93 0.21 1.12 -0.09 -0.81 1124.353
2.55 1005.47 4053.98 7452.11 -12.44 -3.69 7.53 -0.30 0.79 0.3 1.12 0.02 -0.79 1124.933
2.66 1005.46 4053.98 7452.11 94.80 8.68 22.05 -0.57 0.89 0.61 1.07 0.12 -0.76 1125.354
2.56 1005.47 4053.98 7452.11 -38.25 16.54 -94.34 -0.61 0.62 0.5 1.07 0.15 -0.76 1125.936
2.19 1005.51 4053.98 7452.11 17.51 23.26 -64.17 -0.58 0.74 0.27 0.94 0.14 -0.74 1126.359
2.64 1005.46 4053.98 7452.11 35.40 2.32 -2.62 -0.50 1.00 -0.09 0.93 0.08 -0.75 1126.951
2.65 1005.46 4053.98 7452.11 33.09 -18.71 -3.66 -0.59 0.92 -0.08 0.89 0.02 -0.75 1127.359
2.76 1005.44 4053.98 7452.11 14.11 8.51 -8.90 -0.51 0.82 0.15 0.86 0.13 -0.72 1127.939
3.22 1005.39 4053.98 7452.11 6.39 -2.74 17.09 -0.34 0.97 0.15 0.92 0.26 -0.65 1128.361
3.58 1005.35 4053.98 7452.11 -6.93 -0.96 5.48 -0.34 0.85 0.45 0.96 0.26 -0.66 1128.927
2.93 1005.42 4053.98 7452.11 60.42 57.28 18.90 -0.23 0.70 0.65 1.06 0.33 -0.59 1129.364
2.23 1005.51 4053.98 7452.11 7.18 -13.58 5.81 -0.05 0.58 0.8 1.11 0.38 -0.48 1129.94
1.93 1005.54 4053.98 7452.11 8.50 -5.56 -2.86 -0.12 0.52 0.8 1.11 0.39 -0.44 1130.365
2.19 1005.51 4053.98 7452.11 -3.19 10.28 0.91 -0.04 0.64 0.98 1.13 0.40 -0.40 1130.933
3.01 1005.41 4053.98 7452.11 -40.37 -14.97 18.79 0.09 0.59 0.58 1.14 0.36 -0.54 1131.369
2.43 1005.48 4053.98 7452.11 -28.98 12.41 2.95 -0.13 0.68 0.36 1.16 0.26 -0.67 1131.929
2.95 1005.42 4053.98 7452.11 30.82 -2.70 -31.40 0.11 0.90 0.54 1.22 0.27 -0.62 1132.37
1.90 1005.55 4053.98 7452.11 12.47 33.27 -32.42 0.26 0.85 0.79 1.11 0.36 -0.55 1132.935
2.20 1005.51 4053.98 7452.11 0.23 -6.09 12.64 -0.01 0.80 0.75 1.07 0.36 -0.55 1133.371
2.49 1005.48 4053.98 7452.11 -0.29 7.30 22.51 0.04 0.69 0.73 1.12 0.34 -0.57 1133.923
2.60 1005.46 4053.98 7452.11 9.40 -13.56 -7.61 0.11 0.98 0.75 1.18 0.33 -0.57 1134.373
2.55 1005.47 4053.98 7452.11 -5.39 0.32 -32.00 -0.14 0.45 0.58 1.02 0.39 -0.49 1134.92
2.45 1005.48 4053.98 7452.11 -3.71 4.00 -0.05 -0.15 0.70 0.68 1.01 0.36 -0.55 1135.375
2.61 1005.46 4053.98 7452.11 -8.64 -4.74 -4.66 0.05 0.85 0.39 1.05 0.31 -0.62 1135.94
2.48 1005.48 4053.98 7452.11 35.53 3.03 -16.11 -0.18 0.88 0.51 0.97 0.28 -0.65 1136.378
2.93 1005.42 4053.98 7452.11 8.81 -14.89 48.66 -0.07 0.85 0.59 1.04 0.35 -0.57 1136.958
2.86 1005.43 4053.98 7452.11 6.30 3.23 5.43 0.17 0.79 0.53 1.13 0.31 -0.62 1137.376
2.76 1005.44 4053.98 7452.11 -3.75 1.88 -24.10 0.05 0.82 0.59 1.07 0.33 -0.59 1137.944
2.14 1005.52 4053.98 7452.11 3.79 20.54 10.26 -0.02 0.60 0.46 1.02 0.35 -0.56 1138.381
2.14 1005.52 4053.98 7452.11 -15.26 -7.34 9.82 0.09 0.94 0.67 1.09 0.31 -0.62 1138.965
2.14 1005.52 4053.98 7452.11 -23.13 30.79 -4.07 0.10 0.72 0.59 1.08 0.33 -0.61 1139.384
2.60 1005.46 4053.98 7452.11 10.57 5.29 15.83 0.17 0.90 0.59 1.12 0.33 -0.59 1139.944
1.57 1005.59 4053.98 7452.11 0.38 7.80 5.64 0.33 0.75 0.59 1.15 0.33 -0.57 1140.382
2.11 1005.52 4053.98 7452.11 -18.32 -25.65 0.17 0.02 0.84 0.53 1.12 0.33 -0.59 1140.95
2.17 1005.51 4053.98 7452.11 -10.18 0.23 -23.87 -0.15 1.10 0.59 1.02 0.29 -0.64 1141.389
2.55 1005.47 4053.98 7452.11 -7.64 15.08 -32.39 -0.17 0.53 0.28 0.92 0.28 -0.62 1141.95
3.39 1005.37 4053.98 7452.11 21.50 -16.97 -44.84 -0.46 0.60 0.15 0.77 0.16 -0.61 1142.392
2.79 1005.44 4053.98 7452.11 -9.92 15.71 52.92 -0.22 0.86 0.37 0.82 0.19 -0.64 1142.981
2.19 1005.51 4053.98 7452.11 -14.94 -25.64 4.24 -0.16 0.78 0.16 0.95 0.24 -0.68 1143.393
2.72 1005.45 4053.98 7452.11 -8.15 19.35 14.73 -0.32 0.80 0.21 0.95 0.25 -0.67 1143.981
2.53 1005.47 4053.98 7452.11 35.33 -46.14 -4.62 -0.23 0.82 0.17 0.99 0.18 -0.72 1144.395
1.89 1005.55 4053.98 7452.11 21.45 23.67 -27.12 -0.22 0.84 0.48 0.90 0.26 -0.63 1144.969
2.27 1005.50 4053.98 7452.11 16.12 -8.30 13.14 -0.39 1.55 0.41 0.88 0.23 -0.65 1145.397
1.82 1005.56 4053.98 7452.11 -19.27 -15.56 -7.72 -0.15 1.02 0.23 0.92 0.21 -0.69 1145.978
2.05 1005.53 4053.98 7452.11 -2.36 -17.98 16.23 -0.45 0.71 0.17 0.90 0.21 -0.68 1146.4
1.13 1005.64 4053.98 7452.11 -8.69 7.66 3.96 -0.18 0.96 0.25 0.94 0.20 -0.70 1146.976
2.12 1005.52 4053.98 7452.11 1.40 -28.19 -10.99 -0.31 1.05 0.22 0.94 0.17 -0.72 1147.403
1.71 1005.57 4053.98 7452.11 -7.36 11.64 13.13 -0.38 0.71 0.12 0.93 0.16 -0.72 1147.98
2.06 1005.53 4053.98 7452.11 -15.47 -8.86 1.79 -0.14 0.83 0.21 0.96 0.16 -0.73 1148.403
2.22 1005.51 4053.98 7452.11 -9.91 -1.50 -10.69 -0.16 1.08 0.0 0.97 0.12 -0.74 1148.998
2.47 1005.48 4053.98 7452.11 -13.22 -19.48 11.31 -0.35 0.94 -0.23 0.97 0.04 -0.77 1149.407
2.11 1005.52 4053.98 7452.11 -39.43 11.33 6.94 -0.34 0.80 -0.63 0.95 -0.07 -0.78 1149.95
2.09 1005.52 4053.98 7452.11 -18.36 -6.90 51.10 -0.43 1.81 -0.25 0.88 -0.18 -0.76 1150.408
1.78 1005.56 4053.98 7452.11 -18.98 25.93 -5.61 -0.48 0.93 -0.33 0.89 -0.15 -0.76 1150.967
1.72 1005.57 4053.98 7452.11 21.48 -11.90 28.94 -0.48 0.87 -0.21 0.92 -0.01 -0.77 1151.411
1.91 1005.55 4053.98 7452.11 9.54 4.35 26.22 -0.23 0.82 -0.15 0.98 0.06 -0.78 1151.966
2.68 1005.45 4053.98 7452.11 -7.44 28.54 -5.43 -0.20 1.00 -0.19 1.04 0.03 -0.80 1152.41
2.47 1005.48 4053.98 7452.11 7.22 -2.63 -3.12 -0.29 0.82 -0.01 0.99 0.12 -0.77 1152.96
2.46 1005.48 4053.98 7452.11 46.71 -43.34 -10.96 -0.28 1.07 0.08 1.03 0.10 -0.77 1153.416
2.15 1005.52 4053.98 7452.11 12.59 10.88 -61.20 -0.18 0.96 0.19 0.98 0.17 -0.73 1153.968
2.90 1005.43 4053.98 7452.11 11.87 16.58 -6.69 -0.34 0.90 0.2 0.87 0.15 -0.70 1154.422
2.68 1005.45 4053.98 7452.11 50.48 18.63 13.77 -0.23 0.85 0.74 0.92 0.35 -0.51 1154.972
2.20 1005.51 4053.98 7452.11 -35.02 15.63 -8.96 -0.11 0.61 0.71 0.94 0.37 -0.49 1155.428
2.68 1005.45 4053.98 7452.11 14.09 9.60 -15.86 -0.17 0.79 0.76 0.91 0.34 -0.54 1155.981
2.43 1005.48 4053.98 7452.11 -38.82 20.05 9.64 -0.15 0.72 0.46 0.87 0.31 -0.57 1156.435
2.55 1005.47 4053.98 7452.11 -17.71 -14.00 8.40 0.00 0.76 0.78 0.92 0.33 -0.57 1156.979
2.10 1005.52 4053.98 7452.11 -3.67 -28.47 19.52 -0.17 0.90 0.7 0.93 0.31 -0.60 1157.438
2.57 1005.47 4053.98 7452.11 -4.19 20.28 5.57 -0.03 0.88 0.52 0.94 0.31 -0.61 1157.996
2.55 1005.47 4053.99 7452.11 -6.40 3.68 22.68 0.09 0.71 0.47 1.05 0.30 -0.63 1158.437
2.55 1005.47 4053.99 7452.11 12.30 -12.90 -28.03 -0.03 1.06 0.5 1.03 0.30 -0.63 1158.991
3.38 1005.37 4053.99 7452.11 -4.90 19.20 26.00 -0.07 0.87 0.55 1.03 0.29 -0.65 1159.444
2.82 1005.44 4053.99 7452.11 -30.34 5.00 1.09 0.19 1.61 0.18 0.97 0.20 -0.72 1160.004
2.48 1005.48 4053.99 7452.11 13.52 -0.11 -29.11 -0.04 1.04 0.19 0.95 0.14 -0.74 1160.448
2.51 1005.47 4053.99 7452.11 74.86 -10.51 -14.10 -0.28 0.91 0.34 0.84 0.18 -0.67 1160.99
2.42 1005.49 4053.99 7452.11 -2.88 31.90 0.88 -0.24 0.93 0.39 0.83 0.22 -0.63 1161.447
2.27 1005.50 4053.99 7452.11 -14.69 19.65 0.02 0.02 0.85 0.48 0.88 0.21 -0.68 1161.992
2.34 1005.49 4053.99 7452.11 -0.64 -19.92 -21.59 -0.10 1.01 0.53 0.89 0.22 -0.67 1162.452
2.14 1005.52 4053.99 7452.11 -9.41 -1.29 -3.64 -0.24 0.84 0.42 0.82 0.20 -0.65 1162.988
2.61 1005.46 4053.99 7452.11 -0.88 16.16 10.97 -0.11 0.68 0.34 0.84 0.18 -0.68 1163.452
3.22 1005.39 4053.99 7452.11 -2.02 -7.35 4.12 -0.07 0.90 0.38 0.87 0.18 -0.70 1163.998
2.67 1005.46 4053.99 7452.11 -12.13 19.29 -23.62 -0.15 1.09 0.59 0.85 0.12 -0.72 1164.456
2.56 1005.47 4053.99 7452.11 11.14 8.39 4.29 -0.22 0.97 0.33 0.83 0.05 -0.72 1165.007
3.09 1005.41 4053.99 7452.11 -8.80 -10.61 16.06 -0.23 0.89 0.08 0.83 0.05 -0.73 1165.465
2.94 1005.42 4053.99 7452.11 -3.11 -5.43 26.03 -0.01 1.08 0.08 0.88 0.09 -0.74 1166.01
2.81 1005.44 4053.99 7452.11 12.29 -9.66 -11.63 -0.20 0.96 -0.08 0.83 0.05 -0.73 1166.467
3.07 1005.41 4053.99 7452.11 -9.75 -13.00 12.43 -0.24 0.96 0.27 0.81 0.06 -0.71 1167.008
3.13 1005.40 4053.99 7452.11 18.77 13.84 31.92 -0.07 1.03 0.39 0.85 0.09 -0.72 1167.468
2.59 1005.47 4053.99 7452.11 21.94 2.77 10.01 -0.14 1.06 0.22 0.88 0.14 -0.71 1168.018
2.27 1005.50 4053.99 7452.11 -0.18 37.72 -13.66 -0.38 0.87 0.21 0.89 0.16 -0.70 1168.472
2.86 1005.43 4053.99 7452.11 18.58 27.03 -25.35 0.04 0.90 0.58 0.91 0.19 -0.69 1169.012
2.86 1005.43 4053.99 7452.11 29.24 15.81 4.19 0.11 1.08 0.76 0.92 0.23 -0.67 1169.47
2.04 1005.53 4053.99 7452.11 39.87 49.75 -11.33 0.42 0.65 0.75 1.08 0.32 -0.59 1170.03
2.24 1005.51 4053.99 7452.11 -19.95 61.37 4.97 0.38 0.19 0.66 1.10 0.35 -0.55 1170.473
2.27 1005.50 4053.99 7452.11 -7.90 120.27 -22.15 0.34 0.12 0.79 1.12 0.35 -0.54 1171.013
2.45 1005.48 4053.99 7452.11 37.79 -42.90 -11.38 0.32 0.04 0.86 1.12 0.36 -0.52 1171.477
2.33 1005.50 4053.99 7452.11 -17.83 -16.72 0.26 0.50 0.00 0.97 1.14 0.39 -0.52 1172.017
2.21 1005.51 4053.99 7452.11 -6.69 47.56 13.11 0.34 0.09 0.84 1.11 0.36 -0.54 1172.477
2.55 1005.47 4053.99 7452.11 -31.62 25.70 22.43 0.33 0.01 0.7 1.19 0.33 -0.55 1173.024
2.12 1005.52 4053.99 7452.11 -29.23 27.96 -18.56 0.17 0.14 0.83 1.28 0.27 -0.58 1173.481
2.52 1005.47 4053.99 7452.11 -45.14 77.60 10.62 0.38 -0.01 0.86 1.34 0.22 -0.56 1174.025
2.57 1005.47 4053.99 7452.11 -1.61 -8.60 -7.50 0.05 -0.24 0.65 1.36 0.25 -0.49 1174.482
2.40 1005.49 4053.99 7452.11 -27.83 -29.24 4.06 0.21 0.02 0.92 1.30 0.28 -0.55 1175.011
2.39 1005.49 4053.99 7452.11 5.18 10.30 2.35 0.39 0.51 1.05 1.28 0.26 -0.58 1175.481
2.52 1005.47 4053.99 7452.11 -1.92 47.63 4.23 0.21 0.21 0.91 1.30 0.25 -0.58 1176.009
2.56 1005.47 4053.99 7452.11 3.96 -10.83 26.90 0.33 0.30 0.94 1.33 0.22 -0.59 1176.485
2.18 1005.51 4053.99 7452.11 8.84 -38.47 29.89 0.49 0.34 0.76 1.37 0.14 -0.64 1177.012
3.01 1005.41 4053.99 7452.11 8.61 -1.98 37.63 0.91 0.87 0.73 1.30 0.09 -0.72 1177.486
2.98 1005.42 4053.99 7452.11 -31.83 -66.00 50.29 0.10 0.67 0.49 0.92 0.10 -0.73 1178.0
2.78 1005.44 4053.99 7452.11 -22.58 -50.04 19.87 -0.05 0.92 0.0 0.89 -0.07 -0.77 1178.493
2.70 1005.45 4053.99 7452.11 34.86 -4.11 -16.18 -0.23 1.10 0.29 0.82 0.00 -0.72 1179.038
3.22 1005.39 4053.99 7452.11 16.23 16.84 -14.05 -0.10 0.93 0.25 0.85 0.00 -0.74 1179.493
2.88 1005.43 4053.99 7452.11 26.42 14.40 -19.71 0.20 0.82 0.47 0.96 0.09 -0.76 1179.994
2.54 1005.47 4053.99 7452.11 -47.18 64.93 -14.92 0.50 0.55 0.45 1.33 0.04 -0.72 1180.495
2.06 1005.53 4053.99 7452.11 -1.43 60.74 24.70 1.08 0.01 0.42 1.56 -0.16 -0.52 1181.036
1.97 1005.54 4053.99 7452.11 21.73 1.58 23.06 0.92 0.10 0.31 1.55 -0.29 -0.21 1181.495
1.96 1005.54 4053.99 7452.11 2.05 0.61 0.54 0.80 -0.58 -0.02 1.55 -0.30 -0.22 1182.007
1.88 1005.55 4053.99 7452.11 2.13 0.46 0.71 0.80 -0.58 -0.02 1.56 -0.29 -0.21 1182.495
2.37 1005.49 4053.99 7452.11 2.14 0.38 0.72 0.80 -0.58 -0.02 1.55 -0.30 -0.22 1183.031
1.85 1005.55 4053.99 7452.11 2.38 0.37 0.68 0.80 -0.57 -0.02 1.55 -0.30 -0.22 1183.497
1.85 1005.55 4053.99 7452.11 2.33 0.49 0.76 0.80 -0.58 -0.02 1.55 -0.30 -0.21 1184.021
2.25 1005.50 4053.99 7452.11 1.76 0.25 0.77 0.80 -0.58 -0.02 1.55 -0.30 -0.21 1184.499
1.74 1005.57 4053.99 7452.11 2.13 0.36 0.66 0.80 -0.58 -0.02 1.55 -0.30 -0.22 1185.045
1.97 1005.54 4053.99 7452.11 2.00 0.42 0.55 0.80 -0.58 -0.02 1.55 -0.30 -0.22 1185.501
2.35 1005.49 4053.99 7452.11 1.83 0.43 0.52 0.80 -0.58 -0.02 1.55 -0.30 -0.22 1186.049
1.77 1005.56 4053.99 7452.11 1.86 0.15 0.56 0.80 -0.57 -0.02 1.54 -0.30 -0.22 1186.506
1.73 1005.57 4053.99 7452.11 2.11 0.42 0.52 0.80 -0.59 -0.02 1.55 -0.30 -0.22 1187.053
1.85 1005.55 4053.99 7452.11 2.05 0.37 0.61 0.80 -0.58 -0.02 1.54 -0.29 -0.21 1187.508
2.43 1005.48 4053.99 7452.11 0.04 0.17 0.62 0.80 -0.58 -0.02 1.55 -0.30 -0.22 1188.051
2.01 1005.53 4053.99 7452.11 2.07 0.34 0.35 0.80 -0.57 -0.02 1.55 -0.30 -0.21 1188.51
2.02 1005.53 4053.99 7452.11 2.14 0.46 0.49 0.80 -0.58 -0.02 1.55 -0.30 -0.22 1189.056
2.16 1005.52 4053.99 7452.11 1.83 0.33 0.56 0.80 -0.58 -0.02 1.55 -0.30 -0.22 1189.512
1.54 1005.59 4053.99 7452.11 2.08 0.31 0.78 0.79 -0.58 -0.02 1.55 -0.30 -0.23 1190.039
1.97 1005.54 4053.99 7452.11 2.21 0.03 0.60 0.80 -0.58 -0.04 1.55 -0.30 -0.22 1190.514
2.20 1005.51 4053.99 7452.11 2.14 0.35 0.60 0.80 -0.58 -0.01 1.55 -0.30 -0.21 1191.058
1.91 1005.55 4053.99 7452.11 2.32 -6.24 0.38 0.74 -0.67 -0.05 1.55 -0.30 -0.21 1191.518
2.23 1005.51 4053.99 7452.11 41.52 5.64 53.49 0.80 -0.48 -0.42 1.52 -0.43 -0.32 1192.031
2.43 1005.48 4053.99 7452.11 -4.89 18.18 76.94 0.60 -0.16 -0.93 1.32 -0.60 -0.40 1192.522
2.64 1005.46 4053.99 7452.11 29.22 53.35 2.97 -0.08 -0.32 -0.86 1.16 -0.62 -0.40 1193.041
2.69 1005.45 4053.99 7452.11 -0.22 63.54 56.53 -0.01 -0.24 -0.88 1.16 -0.62 -0.45 1193.526
2.99 1005.42 4053.99 7452.11 -40.57 57.08 17.18 -0.51 0.24 -0.76 1.02 -0.60 -0.42 1194.04
3.26 1005.38 4053.99 7452.11 -31.69 26.80 5.33 -0.64 0.45 -0.46 0.92 -0.57 -0.37 1194.527
2.95 1005.42 4053.99 7452.11 43.66 43.15 -1.72 -0.78 1.00 -0.7 1.02 -0.61 -0.34 1195.066
3.61 1005.34 4053.99 7452.11 5.19 52.28 -35.46 -0.52 0.50 -0.75 1.06 -0.61 -0.33 1195.53
3.42 1005.37 4053.99 7452.11 26.04 6.73 -6.30 -0.49 -0.19 -0.69 1.10 -0.61 -0.25 1196.03
3.24 1005.39 4053.99 7452.11 19.55 -23.26 20.73 -0.28 0.34 -0.67 1.06 -0.62 -0.43 1196.532
2.89 1005.43 4053.99 7452.11 -28.13 -4.22 0.19 -1.17 1.99 -1.08 1.08 -0.61 -0.26 1197.032
3.52 1005.35 4053.99 7452.11 21.48 19.51 0.97 -0.62 -0.28 -0.88 1.03 -0.57 -0.18 1197.534
2.94 1005.42 4054.00 7452.11 9.99 2.03 21.64 -0.51 -0.06 -0.63 1.03 -0.59 -0.23 1198.033
3.59 1005.35 4054.00 7452.11 -4.07 44.27 -15.83 -0.63 -0.06 -0.55 0.94 -0.56 -0.24 1198.537
3.21 1005.39 4054.00 7452.11 7.60 -12.19 -18.10 -0.67 0.07 -0.8 0.96 -0.58 -0.32 1199.047
3.20 1005.39 4054.00 7452.11 -6.66 -21.76 23.68 -0.87 0.24 -0.82 0.93 -0.57 -0.38 1199.539
3.45 1005.36 4054.00 7452.10 25.65 -19.49 2.17 -0.98 0.13 -0.68 0.86 -0.53 -0.35 1200.045
3.50 1005.36 4054.00 7452.10 4.63 -22.45 -20.20 -0.61 0.44 -0.46 0.87 -0.53 -0.41 1200.54
3.55 1005.35 4054.00 7452.10 -6.41 6.53 13.98 -0.59 0.09 -0.67 0.91 -0.56 -0.31 1201.046
3.33 1005.38 4054.00 7452.10 -9.37 -40.39 -2.06 -0.50 -0.05 -0.64 0.97 -0.59 -0.31 1201.544
3.31 1005.38 4054.00 7452.10 -15.76 22.18 -6.72 -0.89 -0.11 -0.69 0.94 -0.58 -0.32 1202.044
2.63 1005.46 4054.00 7452.10 10.07 22.09 -19.97 -0.77 0.10 -0.89 0.96 -0.59 -0.33 1202.544
3.23 1005.39 4054.00 7452.10 11.96 68.25 -4.03 -0.78 0.39 -0.8 0.96 -0.59 -0.39 1203.077
3.20 1005.39 4054.00 7452.10 18.95 45.57 -13.87 -0.65 0.24 -0.74 0.98 -0.60 -0.36 1203.547
3.61 1005.34 4054.00 7452.10 24.62 1.90 7.57 -0.41 0.27 -0.63 1.06 -0.60 -0.45 1204.059
3.85 1005.31 4054.00 7452.10 -32.51 11.93 30.07 -0.61 0.64 -0.72 1.05 -0.57 -0.54 1204.548
3.14 1005.40 4054.00 7452.10 -13.06 -5.71 -29.51 -0.62 0.63 -0.8 0.99 -0.58 -0.45 1205.05
3.41 1005.37 4054.00 7452.10 -10.63 -57.21 10.40 -0.42 0.35 -0.57 0.98 -0.58 -0.44 1205.552
2.58 1005.47 4054.00 7452.10 -6.96 30.43 0.12 -0.53 0.15 -0.59 0.92 -0.56 -0.28 1206.061
3.15 1005.40 4054.00 7452.10 8.48 -25.33 7.88 -0.60 0.18 -0.52 0.92 -0.57 -0.36 1206.55
3.66 1005.34 4054.00 7452.10 -20.08 -17.06 3.91 -0.83 0.36 -0.53 0.91 -0.56 -0.41 1207.086
3.24 1005.39 4054.00 7452.10 -0.84 -29.21 -6.24 -0.80 0.44 -1.0 0.94 -0.58 -0.36 1207.555
2.98 1005.42 4054.00 7452.10 13.26 -25.30 4.04 -0.66 0.35 -0.89 0.96 -0.59 -0.32 1208.064
3.49 1005.36 4054.00 7452.10 3.29 7.88 -8.74 -0.54 0.22 -0.49 0.91 -0.56 -0.35 1208.553
3.73 1005.33 4054.00 7452.10 31.59 51.43 -7.58 -0.41 0.33 -0.63 0.99 -0.59 -0.41 1209.066
3.01 1005.41 4054.00 7452.10 -6.69 20.77 4.25 -0.32 0.75 -0.66 1.05 -0.59 -0.51 1209.556
2.92 1005.43 4054.00 7452.09 14.39 62.06 -21.82 -0.32 0.61 -0.96 1.07 -0.60 -0.47 1210.072
3.48 1005.36 4054.00 7452.09 22.64 -20.18 6.92 -0.40 0.65 -0.83 1.04 -0.60 -0.44 1210.559
3.21 1005.39 4054.00 7452.09 -10.75 8.67 6.15 -0.23 0.44 -0.54 1.03 -0.60 -0.45 1211.06
2.46 1005.48 4054.00 7452.09 5.56 -15.74 2.71 -0.35 0.34 -0.6 1.05 -0.60 -0.44 1211.561
3.27 1005.38 4054.00 7452.09 -14.27 6.91 25.37 -0.63 0.54 -0.71 1.03 -0.59 -0.45 1212.063
3.50 1005.36 4054.00 7452.09 12.29 8.15 -12.56 -0.50 0.57 -0.96 1.02 -0.60 -0.44 1212.564
3.16 1005.40 4054.00 7452.09 21.20 2.19 -5.56 -0.40 0.71 -0.9 1.03 -0.60 -0.46 1213.065
3.14 1005.40 4054.00 7452.09 -29.63 6.81 -3.54 -0.20 0.41 -0.62 1.10 -0.62 -0.41 1213.566
3.17 1005.39 4054.00 7452.09 -20.78 -46.17 -0.39 -0.20 0.29 -0.82 1.17 -0.63 -0.37 1214.069
3.80 1005.32 4054.00 7452.09 25.83 0.88 1.41 -0.17 0.62 -0.98 1.15 -0.63 -0.37 1214.566
3.44 1005.36 4054.00 7452.09 13.34 -6.14 -6.41 -0.15 0.56 -0.99 1.13 -0.62 -0.39 1215.07
3.60 1005.34 4054.00 7452.09 3.52 -16.06 -0.37 0.02 0.41 -0.74 1.15 -0.63 -0.41 1215.569
3.74 1005.33 4054.00 7452.09 -18.37 3.34 15.50 -0.24 0.43 -0.58 1.14 -0.62 -0.41 1216.102
2.83 1005.44 4054.00 7452.09 12.91 -6.95 2.60 -0.18 0.31 -1.03 1.14 -0.62 -0.40 1216.571
3.35 1005.37 4054.00 7452.09 10.11 14.65 -4.42 -0.19 0.70 -1.01 1.17 -0.62 -0.42 1217.074
3.82 1005.32 4054.00 7452.09 0.30 14.48 -9.08 -0.12 0.47 -0.91 1.16 -0.63 -0.38 1217.573
3.50 1005.36 4054.00 7452.09 -15.88 -19.86 31.81 -0.08 0.37 -0.77 1.15 -0.63 -0.37 1218.077
3.22 1005.39 4054.00 7452.09 -15.67 7.90 10.90 -0.47 0.40 -0.73 1.06 -0.61 -0.38 1218.576
3.37 1005.37 4054.00 7452.09 13.23 6.06 -19.76 -0.34 0.43 -1.1 1.07 -0.63 -0.37 1219.078
3.14 1005.40 4054.00 7452.09 1.15 -0.03 -9.36 -0.35 0.29 -1.06 1.06 -0.62 -0.31 1219.577
3.41 1005.37 4054.00 7452.09 1.11 3.93 -5.81 -0.26 0.30 -0.84 1.08 -0.62 -0.31 1220.077
3.32 1005.38 4054.00 7452.09 23.37 -17.30 12.25 -0.24 0.26 -0.88 1.09 -0.62 -0.33 1220.581
2.83 1005.44 4054.00 7452.09 -5.05 27.01 11.52 -0.36 0.45 -0.91 1.10 -0.63 -0.37 1221.082
3.44 1005.36 4054.00 7452.09 20.31 1.40 -28.55 -0.28 0.43 -0.95 1.10 -0.63 -0.38 1221.582
3.49 1005.36 4054.00 7452.08 10.20 0.68 -3.34 -0.13 0.49 -0.9 1.15 -0.63 -0.39 1222.082
3.25 1005.39 4054.00 7452.08 -11.17 14.91 7.83 -0.15 0.40 -0.68 1.13 -0.63 -0.38 1222.584
3.46 1005.36 4054.00 7452.08 -0.33 -22.65 4.98 -0.12 0.37 -0.86 1.16 -0.63 -0.42 1223.086
2.76 1005.44 4054.00 7452.08 13.39 50.23 3.06 -0.26 0.74 -1.1 1.13 -0.63 -0.41 1223.585
3.41 1005.37 4054.00 7452.08 13.97 2.87 -10.36 -0.21 0.65 -0.97 1.11 -0.63 -0.41 1224.087
3.49 1005.36 4054.00 7452.08 2.12 -10.68 2.29 -0.07 0.41 -0.74 1.13 -0.63 -0.42 1224.587
2.86 1005.43 4054.00 7452.08 -11.33 3.70 14.23 -0.16 0.42 -0.6 1.11 -0.62 -0.43 1225.115
3.59 1005.35 4054.00 7452.08 -14.39 -17.53 1.35 -0.22 0.49 -0.87 1.11 -0.62 -0.43 1225.591
3.17 1005.40 4054.00 7452.08 18.20 44.79 -6.71 -0.28 0.68 -0.98 1.11 -0.62 -0.42 1226.107
3.37 1005.37 4054.00 7452.08 4.42 9.40 -3.68 -0.14 0.62 -0.78 1.10 -0.62 -0.43 1226.59
3.09 1005.40 4054.00 7452.08 -17.08 -21.45 5.36 -0.07 0.38 -0.63 1.11 -0.62 -0.43 1227.098
3.51 1005.35 4054.00 7452.08 -12.64 -1.78 16.42 -0.23 0.46 -0.71 1.11 -0.62 -0.43 1227.595
3.56 1005.35 4054.00 7452.08 0.36 -30.85 -16.34 -0.24 0.56 -1.16 1.12 -0.62 -0.40 1228.096
3.15 1005.40 4054.00 7452.08 21.04 10.21 -17.46 -0.21 0.61 -0.94 1.12 -0.63 -0.41 1228.598
2.89 1005.43 4054.00 7452.08 1.52 17.73 20.82 -0.19 0.41 -0.66 1.08 -0.62 -0.39 1229.1
3.12 1005.40 4054.00 7452.08 8.57 -6.41 6.21 -0.14 0.36 -0.73 1.13 -0.63 -0.41 1229.597
3.08 1005.41 4054.00 7452.08 22.72 26.96 2.17 -0.12 0.74 -1.01 1.15 -0.62 -0.43 1230.1
3.07 1005.41 4054.00 7452.08 9.33 -1.18 -11.52 -0.07 0.66 -0.98 1.14 -0.62 -0.42 1230.602
3.10 1005.40 4054.00 7452.08 -5.63 -14.67 7.12 -0.04 0.44 -0.71 1.15 -0.62 -0.41 1231.102
3.13 1005.40 4054.00 7452.08 -3.88 6.71 15.76 -0.16 0.48 -0.68 1.13 -0.62 -0.43 1231.602
2.80 1005.44 4054.00 7452.08 5.04 -31.73 -10.16 -0.14 0.46 -0.96 1.15 -0.62 -0.42 1232.121
2.99 1005.42 4054.00 7452.08 14.86 7.05 1.63 -0.21 0.57 -0.97 1.12 -0.63 -0.41 1232.604
2.90 1005.43 4054.00 7452.08 0.54 11.30 1.27 -0.11 0.49 -0.75 1.10 -0.62 -0.40 1233.104
3.25 1005.39 4054.00 7452.08 -5.81 -16.07 11.85 -0.09 0.38 -0.67 1.13 -0.62 -0.42 1233.608
2.80 1005.44 4054.01 7452.07 6.53 6.90 14.94 -0.30 0.57 -0.94 1.12 -0.62 -0.44 1234.106
2.90 1005.43 4054.01 7452.07 18.60 6.04 -15.91 -0.23 0.60 -1.03 1.09 -0.62 -0.40 1234.61
2.66 1005.46 4054.01 7452.07 0.21 -2.46 -2.42 -0.12 0.42 -0.76 1.10 -0.62 -0.40 1235.109
3.37 1005.37 4054.01 7452.07 -3.33 5.21 15.15 -0.14 0.53 -0.65 1.13 -0.62 -0.45 1235.61
3.19 1005.39 4054.01 7452.07 -1.67 -12.28 -2.84 -0.15 0.42 -1.01 1.13 -0.62 -0.41 1236.113
3.19 1005.39 4054.01 7452.07 15.21 13.78 -13.48 -0.17 0.49 -1.05 1.10 -0.62 -0.39 1236.615
3.17 1005.40 4054.01 7452.07 -14.69 5.57 7.23 -0.11 0.52 -0.71 1.10 -0.62 -0.43 1237.113
3.53 1005.35 4054.01 7452.07 0.54 -20.78 11.59 -0.11 0.37 -0.72 1.12 -0.62 -0.44 1237.615
3.08 1005.41 4054.01 7452.07 -14.83 -8.80 25.59 -0.57 0.34 -0.99 1.08 -0.62 -0.38 1238.117
3.14 1005.40 4054.01 7452.07 3.01 19.09 -10.71 -0.46 0.42 -0.95 1.02 -0.61 -0.32 1238.618
2.59 1005.46 4054.01 7452.07 19.19 5.28 -0.20 -0.16 0.41 -0.79 1.05 -0.61 -0.31 1239.117
2.98 1005.42 4054.01 7452.07 -16.40 -4.81 22.91 -0.39 0.22 -0.64 1.00 -0.60 -0.33 1239.62
2.59 1005.47 4054.01 7452.07 -5.81 1.62 12.71 -0.53 0.18 -0.98 0.98 -0.59 -0.31 1240.119
3.00 1005.42 4054.01 7452.07 13.77 35.59 -19.55 -0.59 0.31 -1.01 0.97 -0.59 -0.32 1240.623
3.52 1005.35 4054.01 7452.07 -12.08 6.71 -7.41 -0.38 0.37 -0.87 0.95 -0.58 -0.29 1241.122
3.91 1005.31 4054.01 7452.07 23.76 22.43 11.26 -0.31 0.27 -0.69 1.02 -0.61 -0.29 1241.623
3.13 1005.40 4054.01 7452.07 6.62 3.00 43.61 -0.81 0.24 -0.82 0.96 -0.59 -0.27 1242.122
3.33 1005.38 4054.01 7452.07 42.90 102.49 -16.27 -0.69 0.10 -0.86 0.91 -0.56 -0.28 1242.628
2.79 1005.44 4054.01 7452.07 -6.45 -3.14 -24.05 -0.40 0.09 -0.8 0.96 -0.56 -0.21 1243.127
3.32 1005.38 4054.01 7452.07 -20.48 14.28 25.64 -0.72 0.03 -0.55 0.87 -0.52 -0.21 1243.628
3.31 1005.38 4054.01 7452.07 -1.75 -3.16 18.98 -0.67 0.07 -0.89 0.89 -0.53 -0.21 1244.128
2.86 1005.43 4054.01 7452.07 -4.73 29.28 -4.33 -0.75 0.08 -0.89 0.88 -0.53 -0.22 1244.63
3.07 1005.41 4054.01 7452.07 27.96 -16.50 -22.54 -0.41 0.23 -0.79 0.86 -0.53 -0.29 1245.132
2.78 1005.44 4054.01 7452.07 -18.58 18.05 24.96 -0.52 0.16 -0.43 0.93 -0.57 -0.30 1245.632
3.16 1005.40 4054.01 7452.06 -25.57 5.96 12.64 -0.46 0.23 -0.71 0.96 -0.59 -0.29 1246.133
3.08 1005.41 4054.01 7452.06 28.22 -6.67 4.09 -0.91 0.30 -0.86 0.83 -0.50 -0.26 1246.633
2.86 1005.43 4054.01 7452.06 -4.13 16.13 1.15 -1.09 0.23 -0.65 0.73 -0.42 -0.29 1247.134
3.45 1005.36 4054.01 7452.06 10.11 -29.85 -21.38 -0.66 0.34 -0.55 0.77 -0.46 -0.32 1247.638
3.00 1005.42 4054.01 7452.06 1.37 -43.33 11.74 -0.61 0.13 -0.63 0.85 -0.53 -0.34 1248.138
3.15 1005.40 4054.01 7452.06 -2.23 -16.02 12.05 -0.83 0.26 -0.69 0.86 -0.54 -0.32 1248.64
3.03 1005.41 4054.01 7452.06 -8.86 -15.38 -10.21 -0.75 0.23 -0.73 0.81 -0.49 -0.24 1249.141
3.32 1005.38 4054.01 7452.06 -6.69 -19.99 16.77 -0.71 0.14 -0.5 0.76 -0.45 -0.27 1249.641
2.69 1005.45 4054.01 7452.06 -0.08 -11.82 -4.03 -0.78 0.21 -0.46 0.77 -0.45 -0.28 1250.143
3.00 1005.42 4054.01 7452.06 35.50 20.89 -8.68 -0.89 0.54 -0.82 0.82 -0.51 -0.38 1250.642
3.53 1005.35 4054.01 7452.06 16.76 106.22 2.29 -0.33 1.04 -0.52 0.90 -0.46 -0.61 1251.143
2.85 1005.43 4054.01 7452.06 -25.68 80.38 16.96 0.10 0.61 -0.34 1.00 -0.43 -0.69 1251.644
2.94 1005.42 4054.01 7452.06 5.87 7.45 -18.59 0.05 0.84 -0.51 1.10 -0.49 -0.66 1252.144
2.05 1005.53 4054.01 7452.06 19.74 18.28 23.02 0.11 1.02 -0.48 1.03 -0.46 -0.68 1252.645
2.72 1005.45 4054.01 7452.06 -24.89 -8.22 7.80 0.06 0.91 -0.51 0.99 -0.44 -0.67 1253.146
2.94 1005.42 4054.01 7452.06 0.80 -14.46 1.99 0.17 0.61 -0.47 1.05 -0.52 -0.61 1253.646
3.23 1005.39 4054.01 7452.06 20.71 -5.18 34.12 0.13 0.80 -0.42 0.97 -0.42 -0.68 1254.149
3.23 1005.39 4054.01 7452.06 -13.83 -12.15 -57.52 0.19 1.05 -0.7 1.06 -0.50 -0.65 1254.652
3.04 1005.41 4054.01 7452.06 -5.92 -8.31 -28.25 0.19 0.88 -0.62 1.13 -0.53 -0.61 1255.151
2.70 1005.45 4054.01 7452.06 -5.84 -30.13 4.29 0.17 0.77 -0.51 1.09 -0.51 -0.64 1255.651
2.50 1005.48 4054.01 7452.06 -8.29 95.72 -7.00 0.15 0.67 -0.47 1.13 -0.54 -0.61 1256.153
2.97 1005.42 4054.01 7452.06 8.10 -1.09 -16.65 0.42 0.70 -0.48 1.24 -0.56 -0.57 1256.653
2.43 1005.48 4054.01 7452.06 4.51 -1.57 -8.33 0.55 1.76 -0.75 1.25 -0.58 -0.53 1257.153
2.59 1005.46 4054.01 7452.06 24.60 -15.72 5.11 0.33 0.71 -0.63 1.20 -0.56 -0.58 1257.655
2.72 1005.45 4054.01 7452.05 4.94 -38.79 22.02 0.38 0.11 -0.58 1.14 -0.53 -0.62 1258.157
2.69 1005.45 4054.01 7452.05 22.00 -49.92 4.54 -0.18 0.71 -0.46 0.99 -0.48 -0.64 1258.658
2.50 1005.48 4054.01 7452.05 6.00 40.15 28.10 -0.15 1.10 -0.35 1.00 -0.47 -0.66 1259.158
2.72 1005.45 4054.01 7452.05 -19.69 20.20 -38.16 -0.18 0.98 -0.42 0.96 -0.47 -0.64 1259.662
2.89 1005.43 4054.01 7452.05 0.86 4.27 30.97 -0.26 1.20 -0.42 0.95 -0.48 -0.64 1260.16
2.97 1005.42 4054.01 7452.05 -14.36 27.99 7.64 0.04 0.97 -0.28 1.01 -0.46 -0.67 1260.661
2.76 1005.44 4054.01 7452.05 3.61 -0.58 -15.33 -0.22 1.03 -0.52 0.99 -0.49 -0.63 1261.163
2.64 1005.46 4054.01 7452.05 2.57 31.59 -2.61 -0.19 1.11 -0.43 1.00 -0.47 -0.66 1261.663
2.61 1005.46 4054.01 7452.05 -6.58 10.42 -0.27 0.08 0.86 -0.36 1.04 -0.46 -0.68 1262.164
2.50 1005.48 4054.01 7452.05 -3.16 15.60 -17.16 -0.02 1.03 -0.44 1.05 -0.50 -0.65 1262.667
2.68 1005.45 4054.01 7452.05 36.15 -56.06 -10.42 0.04 1.09 -0.2 1.09 -0.41 -0.73 1263.168
2.87 1005.43 4054.01 7452.05 -7.32 4.35 -47.88 0.04 0.78 -0.11 1.05 -0.36 -0.74 1263.668
2.60 1005.46 4054.01 7452.05 7.95 -1.09 -68.19 -0.12 1.08 -0.08 1.17 -0.37 -0.75 1264.171
2.51 1005.47 4054.01 7452.05 2.15 -38.68 -77.44 -0.16 0.95 -0.21 1.18 -0.26 -0.79 1264.672
2.09 1005.52 4054.01 7452.05 3.87 -19.07 -40.28 -0.37 0.93 -0.16 1.13 -0.22 -0.80 1265.173
2.43 1005.48 4054.01 7452.05 -3.67 -3.55 10.05 -0.44 0.94 -0.22 1.10 -0.23 -0.81 1265.674
2.04 1005.53 4054.01 7452.05 -2.88 -6.76 -1.24 -0.26 0.70 -0.08 1.10 -0.26 -0.80 1266.174
1.90 1005.55 4054.01 7452.05 16.88 23.51 0.54 -0.45 1.04 -0.39 1.12 -0.26 -0.79 1266.674
1.52 1005.59 4054.01 7452.05 -19.49 48.99 1.86 0.51 0.88 -0.01 1.40 -0.17 -0.70 1267.175
1.60 1005.58 4054.01 7452.05 2.13 0.95 0.60 0.22 0.98 -0.06 1.39 -0.17 -0.72 1267.674
1.91 1005.55 4054.01 7452.05 2.33 0.21 0.62 0.22 0.98 -0.05 1.39 -0.17 -0.71 1268.174
1.83 1005.55 4054.01 7452.05 2.30 0.17 0.77 0.22 0.98 -0.06 1.39 -0.17 -0.72 1268.675
1.67 1005.57 4054.01 7452.05 2.31 0.38 0.54 0.21 0.98 -0.06 1.39 -0.18 -0.72 1269.176
1.54 1005.59 4054.01 7452.05 1.89 0.26 0.95 0.21 0.99 -0.06 1.39 -0.17 -0.72 1269.678
1.52 1005.59 4054.01 7452.05 2.21 0.37 0.64 0.21 0.98 -0.06 1.39 -0.17 -0.72 1270.178
1.89 1005.55 4054.01 7452.05 2.05 0.46 0.48 0.21 0.98 -0.06 1.39 -0.17 -0.72 1270.679
2.07 1005.53 4054.01 7452.05 1.94 0.38 0.68 0.21 0.98 -0.06 1.39 -0.17 -0.72 1271.18
1.82 1005.56 4054.01 7452.05 2.05 0.39 0.66 0.21 0.98 -0.06 1.39 -0.17 -0.72 1271.682
1.54 1005.59 4054.01 7452.05 2.27 0.11 0.75 0.21 0.98 -0.06 1.39 -0.17 -0.72 1272.182
1.97 1005.54 4054.01 7452.05 2.16 0.55 0.82 0.21 0.99 -0.06 1.39 -0.18 -0.73 1272.683
1.81 1005.56 4054.01 7452.05 2.02 0.39 0.70 0.21 0.98 -0.06 1.39 -0.17 -0.72 1273.184
2.04 1005.53 4054.01 7452.05 2.30 0.29 0.70 0.21 0.98 -0.06 1.38 -0.17 -0.71 1273.686
1.31 1005.62 4054.01 7452.05 2.00 0.40 0.62 0.21 0.98 -0.06 1.39 -0.18 -0.72 1274.186
1.57 1005.59 4054.01 7452.05 2.00 0.57 0.74 0.21 0.99 -0.06 1.39 -0.17 -0.72 1274.687
1.73 1005.57 4054.01 7452.05 2.14 0.45 0.63 0.21 0.99 -0.06 1.39 -0.17 -0.71 1275.188
2.30 1005.50 4054.01 7452.05 2.35 0.20 0.55 0.21 0.98 -0.06 1.39 -0.17 -0.72 1275.689
1.01 1005.65 4054.01 7452.05 2.14 0.40 0.72 0.21 1.00 -0.06 1.39 -0.17 -0.72 1276.19
1.91 1005.55 4054.01 7452.05 2.07 0.45 0.70 0.21 0.98 -0.06 1.39 -0.18 -0.72 1276.691
1.43 1005.60 4054.01 7452.05 2.25 0.59 0.72 0.21 0.98 -0.06 1.39 -0.17 -0.73 1277.192
1.50 1005.59 4054.01 7452.05 2.06 0.48 0.64 0.21 0.98 -0.06 1.39 -0.18 -0.72 1277.693
1.61 1005.58 4054.01 7452.05 1.90 0.25 0.64 0.21 0.98 -0.06 1.39 -0.17 -0.72 1278.194
1.84 1005.55 4054.01 7452.05 2.31 0.28 0.64 0.21 0.99 -0.06 1.39 -0.17 -0.72 1278.695
1.65 1005.58 4054.01 7452.05 2.31 0.33 0.64 0.21 0.98 -0.06 1.38 -0.18 -0.72 1279.196
1.95 1005.54 4054.01 7452.05 2.31 0.55 0.60 0.21 0.98 -0.07 1.39 -0.18 -0.72 1279.697
2.17 1005.51 4054.01 7452.05 2.01 0.38 0.67 0.21 0.99 -0.06 1.39 -0.17 -0.73 1280.198
2.03 1005.53 4054.01 7452.05 2.00 0.38 0.73 0.22 0.99 -0.07 1.39 -0.17 -0.73 1280.699
1.51 1005.59 4054.01 7452.05 1.92 0.22 0.56 0.21 0.98 -0.06 1.39 -0.17 -0.73 1281.201
1.03 1005.65 4054.01 7452.05 2.08 0.41 0.51 0.20 0.98 -0.04 1.39 -0.18 -0.73 1281.702
1.73 1005.57 4054.01 7452.05 2.16 0.55 0.76 0.21 0.98 -0.06 1.39 -0.17 -0.72 1282.203
1.70 1005.57 4054.01 7452.05 2.16 0.56 0.67 0.21 0.98 -0.06 1.38 -0.17 -0.72 1282.704
1.35 1005.61 4054.01 7452.05 2.35 0.40 0.60 0.21 0.98 -0.06 1.39 -0.17 -0.73 1283.206
1.17 1005.63 4054.01 7452.05 1.93 0.31 0.46 0.21 0.98 -0.06 1.39 -0.17 -0.72 1283.706
0.83 1005.67 4054.01 7452.05 2.10 0.33 0.67 0.19 0.98 -0.06 1.39 -0.17 -0.73 1284.207
2.15 1005.52 4054.01 7452.05 1.97 0.24 0.48 0.20 1.00 -0.06 1.39 -0.17 -0.72 1284.708
1.43 1005.60 4054.01 7452.05 2.14 0.38 0.62 0.22 0.98 -0.08 1.39 -0.17 -0.72 1285.21
1.28 1005.62 4054.01 7452.05 1.92 0.40 0.67 0.21 0.98 -0.06 1.39 -0.17 -0.72 1285.71
1.41 1005.61 4054.01 7452.05 2.20 0.37 0.50 0.19 0.99 -0.07 1.39 -0.17 -0.72 1286.211
1.48 1005.60 4054.01 7452.05 2.02 0.51 0.74 0.21 1.00 -0.06 1.39 -0.17 -0.72 1286.712
1.74 1005.57 4054.01 7452.05 1.99 0.16 0.45 0.22 0.99 -0.06 1.39 -0.17 -0.72 1287.214
1.84 1005.55 4054.01 7452.05 1.95 0.52 0.47 0.20 0.98 -0.06 1.39 -0.17 -0.72 1287.714
1.88 1005.55 4054.01 7452.05 2.03 0.31 0.89 0.21 0.98 -0.07 1.39 -0.17 -0.72 1288.215
1.74 1005.57 4054.01 7452.05 2.23 0.53 0.60 0.21 0.98 -0.06 1.39 -0.18 -0.72 1288.716
1.83 1005.55 4054.01 7452.05 2.15 0.62 0.59 0.20 0.99 -0.06 1.39 -0.17 -0.73 1289.218
1.59 1005.58 4054.01 7452.05 2.31 0.28 0.59 0.21 0.99 -0.06 1.39 -0.17 -0.72 1289.718
1.63 1005.58 4054.01 7452.05 2.30 0.26 0.69 0.21 0.98 -0.06 1.39 -0.17 -0.72 1290.219
1.71 1005.57 4054.01 7452.05 1.90 0.45 0.53 0.21 0.98 -0.06 1.39 -0.17 -0.72 1290.72
1.83 1005.56 4054.01 7452.05 1.96 0.23 0.80 0.20 0.99 -0.06 1.39 -0.17 -0.72 1291.222
1.89 1005.55 4054.01 7452.05 2.07 0.36 0.57 0.20 0.98 -0.06 1.39 -0.17 -0.73 1291.722
2.06 1005.53 4054.01 7452.05 2.22 0.29 0.68 0.19 0.98 -0.05 1.39 -0.17 -0.73 1292.223
1.70 1005.57 4054.01 7452.05 2.25 0.15 0.60 0.20 0.99 -0.06 1.39 -0.17 -0.73 1292.724
1.64 1005.58 4054.01 7452.05 1.90 0.11 0.58 0.19 0.98 -0.05 1.39 -0.17 -0.72 1293.225
1.68 1005.57 4054.01 7452.05 2.29 0.61 0.69 0.21 0.99 -0.06 1.39 -0.17 -0.72 1293.726
1.47 1005.60 4054.01 7452.05 2.08 0.41 0.84 0.21 0.98 -0.05 1.39 -0.17 -0.72 1294.227
1.50 1005.59 4054.01 7452.05 2.12 0.28 0.52 0.20 0.98 -0.06 1.38 -0.17 -0.72 1294.728
1.06 1005.65 4054.01 7452.05 2.21 0.31 0.67 0.20 0.98 -0.06 1.39 -0.17 -0.72 1295.229
1.99 1005.54 4054.01 7452.05 1.87 0.35 0.64 0.20 0.98 -0.06 1.39 -0.17 -0.72 1295.73
1.75 1005.56 4054.01 7452.05 2.21 0.21 0.63 0.21 0.99 -0.07 1.39 -0.17 -0.72 1296.231
0.82 1005.68 4054.01 7452.05 2.04 0.50 0.74 0.19 0.98 -0.06 1.39 -0.17 -0.72 1296.732
1.81 1005.56 4054.01 7452.05 2.04 0.26 0.77 0.20 0.98 -0.06 1.39 -0.17 -0.72 1297.233
1.50 1005.59 4054.01 7452.05 2.47 0.19 0.73 0.21 0.99 -0.06 1.39 -0.17 -0.72 1297.734
1.47 1005.60 4054.01 7452.05 1.98 -0.01 0.73 0.20 0.98 -0.06 1.39 -0.17 -0.72 1298.236
1.99 1005.54 4054.01 7452.05 2.29 0.59 0.62 0.19 0.98 -0.06 1.39 -0.17 -0.72 1298.737
1.91 1005.55 4054.01 7452.05 2.04 0.29 0.60 0.20 0.97 -0.06 1.38 -0.17 -0.72 1299.238
1.26 1005.62 4054.01 7452.05 2.15 0.60 0.74 0.20 0.98 -0.06 1.39 -0.17 -0.72 1299.739
1.54 1005.59 4054.01 7452.05 2.27 0.31 0.78 0.20 0.98 -0.06 1.39 -0.17 -0.71 1300.24
1.66 1005.58 4054.01 7452.05 2.29 0.44 0.39 0.19 0.98 -0.06 1.39 -0.17 -0.72 1300.742
1.71 1005.57 4054.01 7452.05 2.19 0.50 0.58 0.20 0.98 -0.06 1.39 -0.17 -0.71 1301.242
1.92 1005.54 4054.01 7452.05 2.05 0.31 0.56 0.20 0.98 -0.06 1.39 -0.17 -0.71 1301.743
1.60 1005.58 4054.01 7452.05 2.43 0.41 0.63 0.20 0.98 -0.06 1.39 -0.17 -0.72 1302.244
1.63 1005.58 4054.01 7452.05 2.17 0.36 0.79 0.20 0.99 -0.06 1.39 -0.17 -0.72 1302.746
1.55 1005.59 4054.01 7452.05 2.19 0.74 0.70 0.20 0.98 -0.06 1.39 -0.17 -0.73 1303.246
1.85 1005.55 4054.01 7452.05 2.33 0.38 0.83 0.20 0.98 -0.06 1.39 -0.17 -0.72 1303.747
2.41 1005.49 4054.01 7452.05 2.32 0.42 0.70 0.20 0.98 -0.06 1.39 -0.17 -0.73 1304.248
1.71 1005.57 4054.01 7452.05 1.95 0.60 0.97 0.19 0.99 -0.06 1.39 -0.17 -0.72 1304.75
1.75 1005.56 4054.01 7452.05 2.35 0.55 0.62 0.20 0.98 -0.06 1.39 -0.17 -0.72 1305.25
1.44 1005.60 4054.01 7452.05 2.32 0.38 0.57 0.20 0.98 -0.06 1.39 -0.17 -0.73 1305.751
1.53 1005.59 4054.01 7452.05 2.08 0.34 0.69 0.20 0.98 -0.06 1.38 -0.17 -0.73 1306.252
1.08 1005.64 4054.01 7452.05 2.35 0.17 0.51 0.20 0.99 -0.06 1.39 -0.18 -0.72 1306.754
1.66 1005.58 4054.01 7452.05 2.21 0.40 0.72 0.20 0.98 -0.06 1.39 -0.17 -0.73 1307.254
1.85 1005.55 4054.01 7452.05 2.15 0.50 0.58 0.20 0.98 -0.06 1.39 -0.17 -0.72 1307.755
1.88 1005.55 4054.01 7452.05 2.41 0.52 0.71 0.20 0.99 -0.06 1.39 -0.17 -0.72 1308.256
1.67 1005.57 4054.01 7452.05 2.24 0.31 0.59 0.20 0.98 -0.06 1.39 -0.17 -0.73 1308.758
2.10 1005.52 4054.01 7452.05 2.08 0.61 0.68 0.20 0.98 -0.06 1.38 -0.17 -0.72 1309.258
1.77 1005.56 4054.01 7452.05 2.15 0.64 0.40 0.21 0.99 -0.08 1.38 -0.17 -0.73 1309.759
1.61 1005.58 4054.01 7452.05 2.14 0.24 0.64 0.20 0.99 -0.06 1.39 -0.17 -0.72 1310.26
2.07 1005.53 4054.01 7452.05 2.35 0.28 0.53 0.20 0.99 -0.06 1.39 -0.17 -0.72 1310.761
1.59 1005.58 4054.01 7452.05 2.11 0.18 0.75 0.20 0.99 -0.06 1.38 -0.17 -0.72 1311.262
1.55 1005.59 4054.01 7452.05 1.90 0.35 0.60 0.19 0.98 -0.06 1.38 -0.17 -0.72 1311.763
1.67 1005.57 4054.01 7452.05 2.05 0.38 0.80 0.20 0.99 -0.06 1.38 -0.17 -0.73 1312.264
0.87 1005.67 4054.01 7452.05 2.27 0.30 0.60 0.20 0.98 -0.06 1.39 -0.17 -0.72 1312.765
1.83 1005.56 4054.01 7452.05 2.34 0.44 0.56 0.20 0.98 -0.06 1.38 -0.18 -0.72 1313.266
1.74 1005.57 4054.01 7452.05 2.33 0.34 0.68 0.18 0.98 -0.06 1.38 -0.17 -0.72 1313.767
1.48 1005.60 4054.01 7452.05 0.03 0.32 0.61 0.20 0.99 -0.06 1.39 -0.17 -0.73 1314.268
1.87 1005.55 4054.01 7452.05 2.50 0.62 0.72 0.19 0.98 -0.06 1.39 -0.17 -0.72 1314.769
1.61 1005.58 4054.01 7452.05 1.94 0.32 0.64 0.20 0.98 -0.06 1.39 -0.17 -0.73 1315.27
1.46 1005.60 4054.01 7452.05 2.26 0.55 0.66 0.21 0.98 -0.06 1.39 -0.17 -0.73 1315.771
2.00 1005.53 4054.01 7452.05 1.94 0.34 0.67 0.20 0.98 -0.06 1.38 -0.17 -0.72 1316.273
1.98 1005.54 4054.01 7452.05 2.18 0.28 0.60 0.21 0.98 -0.07 1.39 -0.17 -0.72 1316.774
1.91 1005.55 4054.01 7452.05 1.92 0.48 0.95 0.20 0.98 -0.06 1.38 -0.17 -0.72 1317.275
1.53 1005.59 4054.01 7452.05 1.92 0.10 0.53 0.21 0.99 -0.07 1.39 -0.17 -0.72 1317.776
1.65 1005.58 4054.01 7452.05 2.21 0.21 0.87 0.20 0.99 -0.06 1.38 -0.18 -0.72 1318.278
1.76 1005.56 4054.01 7452.05 2.15 0.49 0.60 0.20 0.98 -0.06 1.38 -0.17 -0.72 1318.778
1.52 1005.59 4054.01 7452.05 2.20 0.52 0.56 0.20 0.98 -0.06 1.38 -0.17 -0.72 1319.279
1.74 1005.57 4054.01 7452.05 1.83 0.37 0.41 0.20 0.98 -0.06 1.39 -0.17 -0.72 1319.78
2.17 1005.51 4054.01 7452.05 2.09 0.45 0.55 0.20 0.99 -0.06 1.38 -0.18 -0.72 1320.282
1.83 1005.55 4054.01 7452.05 2.21 0.30 0.74 0.18 0.98 -0.06 1.38 -0.17 -0.72 1320.782
1.97 1005.54 4054.01 7452.05 2.07 0.54 0.68 0.20 0.99 -0.06 1.38 -0.17 -0.72 1321.283
2.03 1005.53 4054.01 7452.05 2.51 0.59 0.68 0.20 0.99 -0.07 1.39 -0.17 -0.72 1321.784
1.92 1005.54 4054.01 7452.05 2.10 0.52 0.49 0.20 0.98 -0.06 1.38 -0.17 -0.73 1322.286
2.13 1005.52 4054.01 7452.05 2.38 0.16 0.50 0.21 0.98 -0.05 1.38 -0.18 -0.73 1322.786
1.64 1005.58 4054.01 7452.05 2.42 0.52 0.74 0.20 0.99 -0.06 1.38 -0.17 -0.72 1323.287
2.35 1005.49 4054.01 7452.05 2.09 0.39 0.78 0.20 0.99 -0.07 1.38 -0.17 -0.72 1323.788
1.96 1005.54 4054.01 7452.05 2.25 0.23 0.59 0.20 0.99 -0.06 1.38 -0.17 -0.73 1324.29
2.25 1005.50 4054.01 7452.05 2.22 0.25 0.58 0.21 0.99 -0.07 1.38 -0.18 -0.71 1324.79
1.54 1005.59 4054.01 7452.05 2.23 0.12 0.71 0.20 0.99 -0.06 1.38 -0.17 -0.72 1325.291
1.99 1005.54 4054.01 7452.05 2.39 0.37 0.52 0.21 0.97 -0.07 1.38 -0.17 -0.73 1325.792
1.59 1005.58 4054.01 7452.05 2.25 0.43 0.57 0.20 0.98 -0.06 1.39 -0.18 -0.72 1326.294
1.22 1005.63 4054.01 7452.05 2.07 0.45 0.65 0.20 0.99 -0.06 1.39 -0.18 -0.72 1326.794
1.42 1005.60 4054.01 7452.05 2.21 0.40 0.62 0.20 0.98 -0.06 1.39 -0.17 -0.72 1327.295
1.45 1005.60 4054.01 7452.05 2.18 0.37 0.67 0.20 0.99 -0.06 1.39 -0.17 -0.72 1327.796
1.98 1005.54 4054.01 7452.05 2.23 0.31 0.54 0.20 0.99 -0.06 1.39 -0.17 -0.72 1328.297
1.99 1005.54 4054.01 7452.05 2.14 0.38 0.61 0.20 0.98 -0.05 1.39 -0.17 -0.73 1328.798
1.92 1005.54 4054.01 7452.05 2.24 0.28 0.72 0.20 0.99 -0.06 1.39 -0.17 -0.72 1329.299
1.52 1005.59 4054.01 7452.05 2.33 0.51 0.58 0.20 0.98 -0.06 1.39 -0.17 -0.72 1329.8
1.91 1005.55 4054.01 7452.05 2.00 0.39 0.53 0.20 0.99 -0.06 1.39 -0.17 -0.73 1330.301
1.28 1005.62 4054.01 7452.05 2.23 0.46 0.85 0.20 0.99 -0.06 1.38 -0.17 -0.73 1330.802
2.14 1005.52 4054.01 7452.05 2.00 0.46 0.62 0.20 0.99 -0.06 1.39 -0.18 -0.73 1331.303
1.75 1005.56 4054.01 7452.05 2.16 0.17 0.87 0.20 0.99 -0.06 1.39 -0.17 -0.72 1331.804
1.70 1005.57 4054.01 7452.05 2.22 0.42 0.58 0.20 0.99 -0.06 1.39 -0.17 -0.73 1332.305
1.93 1005.54 4054.01 7452.05 2.08 0.62 0.61 0.20 0.99 -0.06 1.38 -0.17 -0.73 1332.806
1.64 1005.58 4054.01 7452.05 2.62 0.41 0.57 0.20 0.99 -0.06 1.39 -0.17 -0.72 1333.307
1.47 1005.60 4054.01 7452.05 2.28 0.25 0.74 0.20 0.98 -0.06 1.38 -0.17 -0.73 1333.809
2.14 1005.52 4054.01 7452.05 2.33 0.48 0.77 0.20 0.98 -0.06 1.39 -0.17 -0.73 1334.31
2.01 1005.53 4054.01 7452.05 2.12 0.17 0.76 0.20 0.98 -0.06 1.38 -0.17 -0.74 1334.811
1.97 1005.54 4054.01 7452.05 2.14 0.41 0.60 0.20 0.98 -0.06 1.38 -0.17 -0.73 1335.312
1.60 1005.58 4054.01 7452.05 2.11 0.35 0.60 0.20 0.98 -0.06 1.38 -0.17 -0.72 1335.814
2.05 1005.53 4054.01 7452.05 2.05 0.20 0.81 0.20 0.99 -0.06 1.38 -0.17 -0.73 1336.314
2.09 1005.52 4054.01 7452.05 2.44 0.38 0.58 0.20 0.98 -0.06 1.38 -0.17 -0.73 1336.815
1.56 1005.59 4054.01 7452.05 1.92 0.44 0.72 0.20 0.98 -0.06 1.39 -0.17 -0.73 1337.316
1.78 1005.56 4054.01 7452.05 2.31 0.38 0.46 0.20 0.98 -0.06 1.39 -0.17 -0.72 1337.818
1.78 1005.56 4054.01 7452.05 1.99 0.54 0.68 0.20 0.98 -0.06 1.38 -0.17 -0.73 1338.318
1.67 1005.57 4054.01 7452.05 2.21 0.56 0.88 0.20 0.98 -0.06 1.38 -0.17 -0.72 1338.819
2.17 1005.52 4054.01 7452.05 1.84 0.31 0.82 0.20 0.98 -0.06 1.38 -0.17 -0.72 1339.32
2.05 1005.53 4054.01 7452.05 2.04 0.44 0.54 0.19 0.99 -0.05 1.38 -0.17 -0.72 1339.822
2.11 1005.52 4054.01 7452.05 2.15 0.42 0.37 0.20 0.98 -0.06 1.39 -0.17 -0.72 1340.322
1.65 1005.58 4054.01 7452.05 2.06 0.23 0.58 0.21 0.98 -0.07 1.39 -0.17 -0.73 1340.823
1.83 1005.55 4054.01 7452.05 2.34 0.47 0.67 0.20 0.98 -0.06 1.38 -0.17 -0.72 1341.324
2.01 1005.53 4054.01 7452.05 2.14 0.31 0.39 0.19 0.99 -0.06 1.39 -0.17 -0.73 1341.826
1.83 1005.56 4054.01 7452.05 1.96 0.18 0.60 0.20 0.98 -0.06 1.39 -0.17 -0.73 1342.326
2.12 1005.52 4054.01 7452.05 2.03 0.39 0.60 0.20 0.98 -0.06 1.38 -0.17 -0.72 1342.827
1.96 1005.54 4054.01 7452.05 2.27 0.27 0.60 0.20 0.98 -0.06 1.39 -0.17 -0.72 1343.328
2.21 1005.51 4054.01 7452.05 2.22 0.41 0.61 0.20 0.99 -0.06 1.39 -0.17 -0.72 1343.83
1.98 1005.54 4054.01 7452.05 2.11 0.35 0.53 0.20 0.98 -0.06 1.39 -0.17 -0.72 1344.33
1.81 1005.56 4054.01 7452.05 2.54 0.33 0.38 0.21 0.98 -0.06 1.39 -0.17 -0.72 1344.831
1.98 1005.54 4054.01 7452.05 2.21 0.55 0.55 0.20 0.99 -0.06 1.39 -0.17 -0.72 1345.332
1.82 1005.56 4054.01 7452.05 2.21 0.25 0.66 0.22 0.99 -0.06 1.39 -0.17 -0.73 1345.833
2.22 1005.51 4054.01 7452.05 0.05 0.38 0.67 0.20 0.99 -0.06 1.38 -0.17 -0.73 1346.334
1.94 1005.54 4054.01 7452.05 2.28 0.54 0.58 0.20 0.98 -0.07 1.39 -0.17 -0.73 1346.835
1.69 1005.57 4054.01 7452.05 2.29 0.34 0.46 0.20 0.98 -0.06 1.38 -0.18 -0.73 1347.336
2.06 1005.53 4054.01 7452.05 2.07 0.10 0.83 0.19 0.99 -0.05 1.39 -0.17 -0.72 1347.837
1.87 1005.55 4054.01 7452.05 2.15 0.41 0.54 0.20 0.99 -0.06 1.38 -0.17 -0.73 1348.338
0.97 1005.66 4054.01 7452.05 2.15 0.46 0.57 0.21 0.99 -0.07 1.39 -0.17 -0.73 1348.839
1.84 1005.55 4054.01 7452.05 2.12 0.53 0.56 0.20 0.99 -0.06 1.39 -0.17 -0.73 1349.34
1.34 1005.61 4054.01 7452.05 2.13 0.60 0.68 0.20 0.99 -0.06 1.38 -0.17 -0.72 1349.841
2.30 1005.50 4054.01 7452.05 2.12 0.33 0.67 0.20 0.99 -0.06 1.38 -0.17 -0.73 1350.342
1.74 1005.57 4054.01 7452.05 1.97 0.49 0.61 0.19 0.98 -0.06 1.39 -0.17 -0.73 1350.843
2.02 1005.53 4054.01 7452.05 2.12 0.33 0.52 0.20 0.98 -0.06 1.38 -0.17 -0.73 1351.345
1.60 1005.58 4054.01 7452.05 2.00 0.30 0.51 0.21 0.98 -0.05 1.39 -0.16 -0.72 1351.846
1.80 1005.56 4054.01 7452.05 2.10 0.29 0.80 0.20 0.98 -0.06 1.39 -0.17 -0.73 1352.347
1.39 1005.61 4054.01 7452.05 2.08 0.24 0.51 0.19 0.99 -0.06 1.39 -0.18 -0.72 1352.848
1.39 1005.61 4054.01 7452.05 2.41 0.48 0.58 0.20 0.99 -0.06 1.39 -0.17 -0.73 1353.35
2.11 1005.52 4054.01 7452.05 2.06 0.67 0.61 0.21 0.99 -0.06 1.39 -0.17 -0.73 1353.85
2.22 1005.51 4054.01 7452.05 2.14 0.30 0.61 0.20 0.98 -0.06 1.38 -0.17 -0.72 1354.351
1.20 1005.63 4054.01 7452.05 1.73 0.31 0.82 0.20 0.98 -0.06 1.38 -0.16 -0.73 1354.852
2.60 1005.46 4054.01 7452.05 2.11 0.28 0.65 0.20 0.98 -0.06 1.39 -0.16 -0.73 1355.354
1.87 1005.55 4054.01 7452.05 2.23 0.25 0.74 0.18 0.98 -0.06 1.38 -0.17 -0.73 1355.854
1.44 1005.60 4054.01 7452.05 2.19 0.31 0.26 0.20 0.99 -0.06 1.39 -0.17 -0.73 1356.355
1.38 1005.61 4054.01 7452.05 2.17 0.57 0.68 0.20 0.98 -0.06 1.39 -0.17 -0.72 1356.856
1.38 1005.61 4054.01 7452.05 2.29 0.46 0.36 0.20 0.98 -0.06 1.38 -0.17 -0.73 1357.358
1.86 1005.55 4054.01 7452.05 1.96 0.39 0.49 0.20 0.99 -0.06 1.39 -0.17 -0.72 1357.858
1.62 1005.58 4054.01 7452.05 2.24 0.37 0.65 0.20 0.98 -0.06 1.38 -0.18 -0.73 1358.359
2.21 1005.51 4054.01 7452.05 2.22 0.30 0.64 0.20 0.98 -0.06 1.39 -0.17 -0.72 1358.86
1.71 1005.57 4054.01 7452.05 1.93 0.42 0.55 0.20 0.98 -0.06 1.38 -0.17 -0.72 1359.362
1.22 1005.63 4054.01 7452.05 2.13 0.25 0.59 0.20 0.98 -0.06 1.38 -0.17 -0.72 1359.862
1.64 1005.58 4054.01 7452.05 2.21 0.42 0.54 0.20 0.99 -0.06 1.38 -0.17 -0.72 1360.363
1.96 1005.54 4054.01 7452.05 2.21 0.38 0.74 0.20 0.98 -0.06 1.38 -0.17 -0.72 1360.864
2.08 1005.53 4054.01 7452.05 2.27 0.23 0.58 0.20 0.99 -0.06 1.39 -0.17 -0.73 1361.366
2.11 1005.52 4054.01 7452.05 2.13 0.22 0.70 0.20 0.99 -0.06 1.38 -0.17 -0.72 1361.866
1.63 1005.58 4054.01 7452.05 2.23 0.13 0.63 0.20 0.99 -0.06 1.39 -0.17 -0.72 1362.367
1.52 1005.59 4054.01 7452.05 2.19 0.55 0.74 0.20 0.99 -0.06 1.39 -0.17 -0.73 1362.868
1.26 1005.62 4054.01 7452.05 2.09 0.35 0.55 0.20 0.99 -0.05 1.39 -0.17 -0.73 1363.369
1.64 1005.58 4054.01 7452.05 2.36 0.24 0.45 0.20 0.99 -0.06 1.38 -0.17 -0.73 1363.87
1.60 1005.58 4054.01 7452.05 2.03 0.32 0.67 0.20 0.98 -0.06 1.39 -0.17 -0.73 1364.371
1.69 1005.57 4054.01 7452.05 2.07 0.24 0.61 0.20 0.98 -0.06 1.38 -0.17 -0.73 1364.872
1.99 1005.54 4054.01 7452.05 2.10 0.25 0.70 0.20 0.98 -0.06 1.38 -0.16 -0.72 1365.373
1.54 1005.59 4054.01 7452.05 2.23 0.13 0.58 0.20 0.98 -0.06 1.38 -0.17 -0.72 1365.874
2.10 1005.52 4054.01 7452.05 2.28 0.29 0.73 0.20 0.99 -0.06 1.39 -0.17 -0.71 1366.375
2.13 1005.52 4054.01 7452.05 2.10 0.34 0.62 0.20 0.99 -0.06 1.39 -0.17 -0.73 1366.876
1.84 1005.55 4054.01 7452.05 1.92 0.22 0.51 0.20 0.98 -0.06 1.38 -0.17 -0.73 1367.377
1.75 1005.56 4054.01 7452.05 0.11 0.21 0.36 0.20 0.99 -0.06 1.38 -0.17 -0.72 1367.879
1.83 1005.56 4054.01 7452.05 1.95 0.24 0.61 0.20 0.98 -0.06 1.38 -0.17 -0.73 1368.379
1.90 1005.55 4054.01 7452.05 2.26 0.47 0.61 0.20 0.98 -0.06 1.38 -0.17 -0.72 1368.881
1.39 1005.61 4054.01 7452.05 1.79 0.39 0.70 0.21 0.99 -0.06 1.38 -0.17 -0.72 1369.382
1.98 1005.54 4054.01 7452.05 2.15 0.56 0.58 0.20 0.99 -0.06 1.39 -0.17 -0.72 1369.909
1.89 1005.55 4054.01 7452.05 2.38 0.22 0.54 0.21 0.99 -0.06 1.38 -0.17 -0.73 1370.384
1.99 1005.54 4054.01 7452.05 2.07 0.58 0.57 0.20 0.99 -0.06 1.38 -0.17 -0.73 1370.913
1.83 1005.55 4054.01 7452.05 1.96 0.38 0.72 0.18 0.98 -0.06 1.39 -0.17 -0.72 1371.386
1.70 1005.57 4054.01 7452.05 2.27 0.29 0.50 0.20 0.98 -0.06 1.38 -0.18 -0.72 1371.915
1.42 1005.60 4054.01 7452.05 2.26 0.21 0.64 0.20 0.99 -0.06 1.38 -0.17 -0.72 1372.388
1.65 1005.58 4054.01 7452.05 2.22 0.44 0.70 0.20 1.00 -0.06 1.38 -0.17 -0.72 1372.946
1.62 1005.58 4054.01 7452.05 2.22 0.29 0.60 0.19 0.98 -0.05 1.38 -0.17 -0.73 1373.39
2.66 1005.46 4054.01 7452.05 2.14 0.39 0.74 0.20 0.98 -0.06 1.38 -0.17 -0.72 1373.921
1.62 1005.58 4054.01 7452.05 2.06 0.60 0.78 0.21 0.98 -0.05 1.39 -0.17 -0.73 1374.392
1.25 1005.62 4054.01 7452.05 2.05 0.41 0.43 0.20 0.99 -0.06 1.38 -0.17 -0.72 1374.92
1.77 1005.56 4054.01 7452.05 2.11 0.43 0.56 0.20 0.99 -0.07 1.38 -0.18 -0.73 1375.394
2.13 1005.52 4054.01 7452.05 2.38 0.17 0.63 0.20 0.99 -0.06 1.38 -0.17 -0.73 1375.895
1.75 1005.56 4054.01 7452.05 2.42 0.32 0.57 0.22 0.99 -0.04 1.38 -0.17 -0.73 1376.396
1.55 1005.59 4054.01 7452.05 2.00 0.12 0.59 0.20 0.98 -0.06 1.38 -0.17 -0.72 1376.898
1.85 1005.55 4054.01 7452.05 2.06 0.45 0.60 0.21 0.98 -0.07 1.38 -0.17 -0.73 1377.398
2.36 1005.49 4054.01 7452.05 2.05 0.47 0.47 0.20 0.98 -0.06 1.38 -0.18 -0.73 1377.899
1.38 1005.61 4054.01 7452.05 1.93 0.45 0.68 0.20 0.98 -0.06 1.38 -0.17 -0.72 1378.4
2.06 1005.53 4054.01 7452.05 2.40 0.29 0.67 0.20 0.99 -0.06 1.38 -0.17 -0.73 1378.931
1.93 1005.54 4054.01 7452.05 2.02 0.38 0.74 0.20 0.98 -0.06 1.38 -0.17 -0.72 1379.402
1.06 1005.65 4054.01 7452.05 2.01 0.45 0.66 0.20 0.98 -0.06 1.38 -0.17 -0.72 1379.903
1.89 1005.55 4054.01 7452.05 2.21 0.38 0.71 0.20 0.98 -0.06 1.38 -0.17 -0.73 1380.404
1.18 1005.63 4054.01 7452.05 1.88 0.20 0.64 0.21 0.98 -0.06 1.38 -0.17 -0.73 1380.905
1.84 1005.55 4054.01 7452.05 2.19 0.27 0.60 0.20 0.99 -0.06 1.38 -0.17 -0.72 1381.406
1.79 1005.56 4054.01 7452.05 2.23 0.25 0.81 0.18 0.98 -0.06 1.38 -0.17 -0.72 1381.935
1.68 1005.57 4054.01 7452.05 2.06 0.49 0.76 0.20 0.99 -0.06 1.38 -0.17 -0.72 1382.408
1.71 1005.57 4054.01 7452.05 2.49 0.45 0.52 0.21 0.99 -0.06 1.38 -0.17 -0.72 1382.909
1.28 1005.62 4054.01 7452.05 2.43 0.46 0.79 0.20 0.98 -0.06 1.39 -0.17 -0.72 1383.41
1.07 1005.65 4054.01 7452.05 2.28 0.32 0.45 0.18 0.98 -0.06 1.38 -0.17 -0.72 1383.911
1.85 1005.55 4054.01 7452.05 2.03 0.39 0.64 0.20 0.98 -0.06 1.38 -0.17 -0.72 1384.412
1.73 1005.57 4054.01 7452.05 2.14 0.17 0.60 0.20 0.98 -0.05 1.38 -0.17 -0.72 1384.913
1.14 1005.64 4054.01 7452.05 2.16 0.31 0.59 0.19 0.98 -0.06 1.38 -0.17 -0.72 1385.414
1.76 1005.56 4054.01 7452.05 2.34 0.31 0.63 0.19 0.98 -0.06 1.38 -0.17 -0.72 1385.979
2.19 1005.51 4054.01 7452.05 2.17 0.34 0.70 0.20 0.98 -0.06 1.38 -0.17 -0.72 1386.417
1.76 1005.56 4054.01 7452.05 2.07 0.26 0.60 0.19 0.98 -0.06 1.38 -0.17 -0.71 1386.996
2.11 1005.52 4054.01 7452.05 2.37 0.38 0.64 0.20 0.99 -0.06 1.38 -0.17 -0.72 1387.419
1.89 1005.55 4054.01 7452.05 2.23 0.57 0.79 0.20 0.98 -0.06 1.38 -0.17 -0.72 1387.92
1.72 1005.57 4054.01 7452.05 1.89 0.42 0.60 0.20 0.98 -0.06 1.38 -0.17 -0.72 1388.422
1.36 1005.61 4054.01 7452.05 2.32 0.24 0.60 0.20 0.98 -0.06 1.38 -0.17 -0.72 1388.999
1.82 1005.56 4054.01 7452.05 1.97 0.45 0.82 0.20 0.99 -0.06 1.38 -0.17 -0.72 1389.423
2.63 1005.46 4054.01 7452.05 2.27 0.38 0.73 0.20 0.98 -0.06 1.38 -0.17 -0.72 1389.988
2.10 1005.52 4054.01 7452.05 2.20 0.39 0.55 0.20 0.98 -0.06 1.38 -0.17 -0.73 1390.426
1.82 1005.56 4054.01 7452.05 2.06 0.54 0.64 0.20 0.99 -0.06 1.38 -0.17 -0.73 1390.991
2.01 1005.53 4054.01 7452.05 2.32 0.35 0.52 0.20 0.98 -0.06 1.37 -0.17 -0.73 1391.427
1.90 1005.55 4054.01 7452.05 2.26 0.60 0.57 0.20 0.98 -0.06 1.37 -0.17 -0.72 1392.008
2.15 1005.52 4054.01 7452.05 2.22 0.49 0.66 0.20 0.99 -0.06 1.38 -0.17 -0.73 1392.43
1.96 1005.54 4054.01 7452.05 0.05 0.52 0.55 0.20 0.98 -0.06 1.38 -0.17 -0.72 1393.008
2.49 1005.48 4054.01 7452.05 2.17 0.19 0.63 0.20 0.98 -0.06 1.38 -0.16 -0.72 1393.431
1.70 1005.57 4054.01 7452.05 2.08 0.33 0.75 0.19 0.99 -0.06 1.38 -0.17 -0.73 1394.009
1.80 1005.56 4054.01 7452.05 2.38 0.20 0.61 0.20 0.98 -0.06 1.38 -0.17 -0.73 1394.434
1.89 1005.55 4054.01 7452.05 2.23 0.17 0.80 0.20 0.99 -0.06 1.38 -0.17 -0.72 1395.015
2.09 1005.52 4054.01 7452.05 2.14 0.44 0.64 0.20 0.98 -0.06 1.39 -0.17 -0.72 1395.435
2.02 1005.53 4054.01 7452.05 2.08 0.39 0.56 0.20 1.00 -0.06 1.38 -0.17 -0.74 1396.017
2.17 1005.52 4054.01 7452.05 2.22 0.08 0.35 0.20 0.98 -0.06 1.38 -0.17 -0.73 1396.438
1.91 1005.55 4054.01 7452.05 2.13 0.95 0.52 0.20 0.98 -0.06 1.38 -0.16 -0.73 1396.938
1.76 1005.56 4054.01 7452.05 2.35 0.44 0.48 0.20 0.98 -0.06 1.39 -0.16 -0.74 1397.439
1.99 1005.54 4054.01 7452.05 2.17 0.52 0.61 0.20 0.98 -0.06 1.38 -0.16 -0.73 1397.967
2.61 1005.46 4054.01 7452.05 2.08 0.34 0.48 0.19 0.99 -0.06 1.38 -0.16 -0.73 1398.441
2.10 1005.52 4054.01 7452.05 4.45 0.12 0.68 0.20 0.99 -0.06 1.38 -0.17 -0.73 1398.966
1.64 1005.58 4054.01 7452.05 2.32 0.24 0.63 0.21 0.99 -0.06 1.38 -0.17 -0.73 1399.443
1.55 1005.59 4054.01 7452.05 2.11 0.24 0.47 0.20 0.98 -0.06 1.38 -0.16 -0.72 1400.024
1.75 1005.56 4054.01 7452.05 2.06 0.28 0.41 0.21 0.98 -0.07 1.38 -0.16 -0.72 1400.445
1.74 1005.57 4054.01 7452.05 2.33 0.53 0.36 0.20 0.99 -0.06 1.38 -0.16 -0.73 1400.973
1.95 1005.54 4054.01 7452.05 2.27 0.47 0.59 0.21 0.98 -0.07 1.38 -0.17 -0.72 1401.447
1.73 1005.57 4054.01 7452.05 2.23 0.43 0.62 0.20 0.98 -0.06 1.38 -0.16 -0.73 1401.949
1.76 1005.56 4054.01 7452.05 1.84 0.17 0.71 0.19 0.98 -0.06 1.38 -0.16 -0.72 1402.449
1.73 1005.57 4054.01 7452.05 2.28 0.25 0.55 0.20 0.97 -0.06 1.38 -0.17 -0.73 1403.029
1.97 1005.54 4054.01 7452.05 2.30 0.52 0.53 0.19 0.99 -0.06 1.38 -0.16 -0.73 1403.451
1.67 1005.57 4054.01 7452.05 2.08 0.29 0.67 0.20 0.99 -0.05 1.38 -0.16 -0.72 1404.046
1.89 1005.55 4054.01 7452.05 1.77 0.38 0.80 0.20 0.99 -0.06 1.38 -0.16 -0.72 1404.454
2.14 1005.52 4054.01 7452.05 2.26 0.36 0.60 0.20 0.98 -0.06 1.38 -0.17 -0.72 1405.031
1.83 1005.56 4054.01 7452.05 2.21 0.39 0.56 0.21 0.98 -0.04 1.38 -0.17 -0.72 1405.456
1.99 1005.54 4054.01 7452.05 2.07 0.13 0.67 0.20 1.00 -0.06 1.37 -0.17 -0.72 1406.012
2.15 1005.52 4054.01 7452.05 2.00 0.46 0.60 0.20 0.99 -0.06 1.37 -0.17 -0.73 1406.458
2.17 1005.52 4054.01 7452.05 2.01 0.26 0.67 0.20 0.98 -0.06 1.39 -0.16 -0.72 1407.015
2.29 1005.50 4054.01 7452.05 2.17 0.48 0.64 0.18 0.99 -0.06 1.38 -0.16 -0.73 1407.46
1.88 1005.55 4054.01 7452.05 2.20 0.34 0.49 0.20 0.99 -0.05 1.38 -0.16 -0.73 1407.986
2.29 1005.50 4054.01 7452.05 2.18 0.33 0.70 0.19 0.98 -0.06 1.38 -0.17 -0.72 1408.462
2.03 1005.53 4054.01 7452.05 1.90 0.37 0.58 0.20 0.98 -0.06 1.38 -0.17 -0.72 1409.043
2.42 1005.48 4054.01 7452.05 2.12 0.12 0.68 0.20 0.98 -0.06 1.37 -0.16 -0.72 1409.464
1.40 1005.61 4054.01 7452.05 2.16 0.18 0.57 0.20 1.00 -0.06 1.38 -0.17 -0.72 1410.046
1.38 1005.61 4054.01 7452.05 2.25 0.25 0.56 0.18 0.98 -0.06 1.38 -0.17 -0.72 1410.466
1.66 1005.58 4054.01 7452.05 0.08 0.60 0.37 0.20 0.97 -0.06 1.38 -0.17 -0.72 1411.052
1.84 1005.55 4054.01 7452.05 2.11 0.30 0.72 0.21 0.99 -0.03 1.38 -0.17 -0.72 1411.468
2.09 1005.52 4054.01 7452.05 2.09 0.22 0.60 0.20 1.00 -0.06 1.38 -0.17 -0.73 1412.055
2.38 1005.49 4054.01 7452.05 2.08 0.38 0.65 0.19 0.99 -0.06 1.38 -0.17 -0.72 1412.47
1.74 1005.57 4054.01 7452.05 2.07 0.66 0.79 0.20 0.97 -0.06 1.38 -0.17 -0.72 1413.051
1.51 1005.59 4054.01 7452.05 1.97 0.42 0.52 0.20 0.98 -0.05 1.38 -0.16 -0.72 1413.472
2.04 1005.53 4054.01 7452.05 2.13 0.37 0.56 0.20 0.99 -0.06 1.38 -0.16 -0.72 1414.05
2.19 1005.51 4054.01 7452.05 2.28 0.35 0.52 0.18 0.98 -0.05 1.38 -0.16 -0.73 1414.474
1.77 1005.56 4054.01 7452.05 2.02 0.31 0.49 0.20 0.99 -0.06 1.38 -0.17 -0.72 1415.049
1.89 1005.55 4054.01 7452.05 2.07 0.33 0.51 0.21 0.98 -0.05 1.37 -0.17 -0.72 1415.476
1.92 1005.54 4054.01 7452.05 1.97 0.61 0.52 0.20 0.99 -0.06 1.38 -0.17 -0.72 1416.046
2.01 1005.53 4054.01 7452.05 2.13 0.21 0.60 0.19 0.98 -0.06 1.38 -0.17 -0.71 1416.478
2.27 1005.50 4054.01 7452.05 2.05 0.27 0.60 0.20 0.99 -0.06 1.38 -0.17 -0.72 1417.066
1.90 1005.55 4054.01 7452.05 2.05 0.44 0.81 0.20 0.98 -0.06 1.38 -0.17 -0.71 1417.48
1.43 1005.60 4054.01 7452.05 1.88 0.55 0.57 0.20 0.97 -0.06 1.38 -0.17 -0.72 1418.038
1.93 1005.54 4054.01 7452.05 2.25 0.45 0.68 0.20 0.98 -0.06 1.38 -0.17 -0.72 1418.482
1.82 1005.56 4054.01 7452.05 2.12 0.62 0.51 0.19 0.98 -0.06 1.38 -0.17 -0.72 1419.046
1.82 1005.56 4054.01 7452.05 2.08 0.14 0.69 0.19 0.98 -0.06 1.38 -0.16 -0.72 1419.484
2.13 1005.52 4054.01 7452.05 1.87 0.22 0.52 0.20 0.99 -0.06 1.38 -0.17 -0.73 1420.06
2.16 1005.52 4054.01 7452.05 2.20 0.24 0.67 0.19 0.98 -0.06 1.38 -0.17 -0.73 1420.486
2.48 1005.48 4054.01 7452.05 2.43 0.60 0.74 0.20 1.00 -0.06 1.38 -0.17 -0.72 1421.068
2.06 1005.53 4054.01 7452.05 2.29 0.59 0.51 0.20 0.98 -0.06 1.38 -0.17 -0.73 1421.489
2.18 1005.51 4054.01 7452.05 2.40 0.33 0.63 0.20 0.99 -0.06 1.38 -0.17 -0.72 1422.07
1.98 1005.54 4054.01 7452.05 0.06 0.25 0.60 0.20 0.98 -0.06 1.38 -0.16 -0.72 1422.491
2.40 1005.49 4054.01 7452.05 2.29 0.47 0.39 0.20 0.98 -0.06 1.38 -0.16 -0.73 1423.071
2.35 1005.49 4054.01 7452.05 1.99 0.33 0.61 0.20 0.99 -0.06 1.38 -0.16 -0.73 1423.494
2.10 1005.52 4054.01 7452.05 2.13 0.51 0.30 0.20 0.99 -0.06 1.38 -0.16 -0.72 1424.053
1.84 1005.55 4054.01 7452.05 4.44 0.36 0.74 0.19 0.98 -0.06 1.38 -0.17 -0.73 1424.495
2.17 1005.51 4054.01 7452.05 2.46 0.24 0.56 0.20 0.98 -0.06 1.38 -0.17 -0.72 1425.069
2.58 1005.47 4054.01 7452.05 2.21 0.36 0.76 0.20 0.99 -0.06 1.38 -0.17 -0.73 1425.498
2.47 1005.48 4054.01 7452.05 2.42 0.31 0.34 0.20 1.00 -0.06 1.38 -0.16 -0.73 1426.074
2.76 1005.44 4054.01 7452.05 4.39 0.40 0.53 0.20 0.99 -0.06 1.38 -0.16 -0.72 1426.499
2.28 1005.50 4054.01 7452.05 2.35 0.14 0.47 0.20 0.99 -0.06 1.38 -0.17 -0.72 1427.08
2.12 1005.52 4054.01 7452.05 2.19 0.55 0.54 0.20 0.99 -0.06 1.38 -0.17 -0.72 1427.502
2.45 1005.48 4054.01 7452.05 2.14 0.29 0.68 0.19 0.99 -0.06 1.38 -0.17 -0.72 1428.085
2.13 1005.52 4054.01 7452.05 0.16 0.28 0.60 0.20 0.98 -0.05 1.38 -0.17 -0.72 1428.503
2.57 1005.47 4054.01 7452.05 2.21 0.61 0.74 0.20 0.99 -0.06 1.38 -0.16 -0.71 1429.082
2.03 1005.53 4054.01 7452.05 2.04 0.16 0.41 0.20 0.98 -0.06 1.38 -0.16 -0.73 1429.506
2.47 1005.48 4054.01 7452.05 1.78 0.30 0.52 0.20 0.98 -0.06 1.38 -0.16 -0.72 1430.084
2.08 1005.53 4054.01 7452.05 2.13 0.31 0.46 0.21 0.99 -0.06 1.38 -0.17 -0.73 1430.507
2.43 1005.48 4054.01 7452.05 0.11 0.44 0.37 0.20 0.99 -0.06 1.38 -0.16 -0.72 1431.074
2.40 1005.49 4054.01 7452.05 2.17 0.53 0.32 0.19 0.99 -0.07 1.38 -0.16 -0.73 1431.51
2.62 1005.46 4054.01 7452.05 2.07 0.38 0.50 0.20 1.00 -0.06 1.38 -0.16 -0.73 1432.078
2.51 1005.47 4054.01 7452.05 1.77 0.64 0.45 0.20 0.99 -0.06 1.38 -0.17 -0.73 1432.511
2.59 1005.46 4054.01 7452.05 2.07 0.43 0.81 0.20 0.99 -0.06 1.38 -0.16 -0.73 1433.079
2.62 1005.46 4054.01 7452.05 2.14 0.33 0.63 0.19 0.98 -0.06 1.38 -0.17 -0.73 1433.513
2.37 1005.49 4054.01 7452.05 4.45 0.37 0.58 0.20 0.99 -0.06 1.38 -0.17 -0.72 1434.067
1.96 1005.54 4054.01 7452.05 2.06 0.33 0.36 0.20 0.98 -0.07 1.38 -0.17 -0.72 1434.515
2.40 1005.49 4054.01 7452.05 2.34 0.47 0.69 0.19 0.99 -0.06 1.38 -0.17 -0.71 1435.081
2.39 1005.49 4054.01 7452.05 2.40 0.30 0.50 0.19 0.99 -0.04 1.38 -0.17 -0.72 1435.517
2.52 1005.47 4054.01 7452.05 2.21 0.54 0.79 0.19 0.99 -0.06 1.37 -0.16 -0.72 1436.078
2.49 1005.48 4054.01 7452.05 1.99 0.41 0.65 0.20 0.99 -0.06 1.38 -0.16 -0.72 1436.519
2.31 1005.50 4054.01 7452.05 2.06 0.24 0.63 0.20 0.99 -0.06 1.38 -0.16 -0.73 1437.077
2.40 1005.49 4054.01 7452.05 2.30 0.32 0.38 0.21 0.99 -0.07 1.38 -0.17 -0.72 1437.521
2.43 1005.48 4054.01 7452.05 0.08 0.16 0.55 0.20 0.98 -0.06 1.38 -0.17 -0.72 1438.068
2.26 1005.50 4054.01 7452.05 1.92 0.40 0.77 0.19 0.98 -0.07 1.38 -0.17 -0.72 1438.523
2.03 1005.53 4054.01 7452.05 2.10 0.35 0.65 0.20 0.98 -0.06 1.37 -0.17 -0.72 1439.112
1.63 1005.58 4054.01 7452.05 2.23 0.48 0.81 0.20 0.98 -0.06 1.38 -0.16 -0.73 1439.526
1.78 1005.56 4054.01 7452.05 2.25 0.55 0.77 0.20 0.98 -0.06 1.38 -0.17 -0.72 1440.081
2.72 1005.45 4054.01 7452.05 2.12 0.52 0.67 0.21 0.98 -0.05 1.38 -0.17 -0.72 1440.528
2.15 1005.52 4054.01 7452.05 0.03 0.52 0.67 0.20 0.99 -0.06 1.38 -0.16 -0.71 1441.119
1.99 1005.54 4054.01 7452.05 2.01 0.30 0.47 0.20 0.98 -0.05 1.38 -0.17 -0.72 1441.53
2.59 1005.46 4054.01 7452.05 2.36 0.30 0.63 0.20 0.99 -0.05 1.38 -0.17 -0.72 1442.094
2.34 1005.49 4054.01 7452.05 2.13 0.44 0.67 0.19 0.99 -0.06 1.38 -0.17 -0.72 1442.532
2.06 1005.53 4054.01 7452.05 1.89 0.28 0.70 0.19 0.99 -0.06 1.38 -0.16 -0.72 1443.084
2.11 1005.52 4054.01 7452.05 2.24 0.34 0.51 0.18 0.98 -0.06 1.38 -0.16 -0.72 1443.534
2.22 1005.51 4054.01 7452.05 2.32 0.34 0.45 0.20 0.99 -0.06 1.38 -0.16 -0.72 1444.08
2.31 1005.50 4054.01 7452.05 2.24 0.41 0.69 0.20 0.99 -0.05 1.38 -0.17 -0.72 1444.536
2.27 1005.50 4054.01 7452.05 2.00 0.29 0.69 0.20 0.98 -0.06 1.38 -0.16 -0.72 1445.115
1.87 1005.55 4054.01 7452.05 1.99 0.58 0.62 0.20 0.99 -0.06 1.38 -0.17 -0.72 1445.538
1.78 1005.56 4054.01 7452.05 2.26 0.48 0.38 0.19 0.99 -0.06 1.38 -0.17 -0.72 1446.112
2.69 1005.45 4054.01 7452.05 1.96 0.37 0.57 0.20 0.99 -0.06 1.37 -0.16 -0.73 1446.54
2.27 1005.50 4054.01 7452.05 2.24 0.36 0.77 0.19 0.98 -0.06 1.37 -0.16 -0.73 1447.137
2.08 1005.53 4054.01 7452.05 2.00 0.31 0.52 0.20 0.98 -0.06 1.38 -0.16 -0.73 1447.542
1.94 1005.54 4054.01 7452.05 2.06 0.30 0.52 0.20 0.99 -0.06 1.38 -0.16 -0.73 1448.122
2.23 1005.51 4054.01 7452.05 2.02 0.45 0.62 0.20 0.98 -0.06 1.38 -0.16 -0.72 1448.544
2.48 1005.48 4054.01 7452.05 2.18 0.38 0.68 0.20 0.98 -0.06 1.38 -0.16 -0.72 1449.125
1.83 1005.56 4054.01 7452.05 2.27 0.13 0.54 0.20 0.98 -0.06 1.38 -0.17 -0.72 1449.546
2.12 1005.52 4054.01 7452.05 2.12 0.49 0.67 0.19 1.00 -0.06 1.38 -0.16 -0.72 1450.121
1.73 1005.57 4054.01 7452.05 2.28 0.32 0.44 0.20 0.99 -0.06 1.38 -0.16 -0.72 1450.548
2.65 1005.46 4054.01 7452.05 2.35 0.20 0.62 0.19 0.98 -0.06 1.38 -0.16 -0.72 1451.137
2.60 1005.46 4054.01 7452.05 2.20 0.34 0.70 0.19 0.98 -0.05 1.38 -0.16 -0.73 1451.55
2.74 1005.45 4054.01 7452.05 2.28 0.19 0.63 0.20 0.98 -0.06 1.38 -0.17 -0.72 1452.101
2.15 1005.52 4054.01 7452.05 1.97 0.32 0.71 0.20 0.99 -0.06 1.38 -0.16 -0.71 1452.557
2.03 1005.53 4054.01 7452.05 0.00 0.47 0.67 0.20 0.99 -0.06 1.38 -0.16 -0.71 1453.109
2.71 1005.45 4054.01 7452.05 2.28 0.47 0.66 0.19 0.98 -0.06 1.38 -0.16 -0.72 1453.564
2.40 1005.49 4054.01 7452.05 0.06 0.31 0.64 0.20 0.99 -0.06 1.38 -0.16 -0.72 1454.101
2.43 1005.48 4054.01 7452.05 2.47 0.38 0.51 0.20 0.99 -0.06 1.38 -0.16 -0.72 1454.566
2.31 1005.50 4054.01 7452.05 2.19 0.32 0.40 0.19 0.98 -0.06 1.37 -0.17 -0.73 1455.111
2.18 1005.51 4054.01 7452.05 2.20 0.21 0.60 0.19 0.98 -0.06 1.38 -0.16 -0.72 1455.569
2.68 1005.45 4054.01 7452.05 0.01 0.17 0.45 0.20 0.98 -0.06 1.38 -0.17 -0.72 1456.107
2.27 1005.50 4054.01 7452.05 1.95 0.41 0.64 0.20 0.99 -0.05 1.38 -0.16 -0.73 1456.571
2.46 1005.48 4054.01 7452.05 2.31 0.50 0.57 0.19 0.99 -0.06 1.38 -0.17 -0.73 1457.119
2.69 1005.45 4054.01 7452.05 2.21 0.38 0.59 0.20 0.99 -0.06 1.38 -0.16 -0.72 1457.574
2.49 1005.48 4054.01 7452.05 2.21 0.39 0.78 0.20 1.00 -0.06 1.37 -0.17 -0.73 1458.12
1.89 1005.55 4054.01 7452.05 2.07 0.39 0.64 0.20 0.98 -0.06 1.38 -0.17 -0.73 1458.576
2.66 1005.46 4054.01 7452.05 2.17 0.45 0.58 0.21 0.98 -0.05 1.37 -0.16 -0.72 1459.121
2.14 1005.52 4054.01 7452.05 2.26 0.42 0.64 0.19 0.98 -0.06 1.38 -0.17 -0.72 1459.578
2.06 1005.53 4054.01 7452.05 2.34 0.38 0.72 0.18 0.98 -0.06 1.37 -0.16 -0.73 1460.139
1.66 1005.58 4054.01 7452.05 1.85 0.21 0.50 0.19 0.98 -0.06 1.38 -0.17 -0.72 1460.58
2.23 1005.51 4054.01 7452.05 4.34 0.34 0.66 0.21 0.99 -0.06 1.37 -0.17 -0.72 1461.107
2.96 1005.42 4054.01 7452.05 2.26 0.37 0.55 0.19 0.99 -0.05 1.38 -0.17 -0.72 1461.582
2.28 1005.50 4054.01 7452.05 2.07 0.40 0.60 0.20 1.00 -0.06 1.37 -0.17 -0.72 1462.124
1.96 1005.54 4054.01 7452.05 2.06 0.45 0.52 0.20 0.98 -0.06 1.38 -0.17 -0.72 1462.584
2.27 1005.50 4054.01 7452.05 2.15 0.39 0.62 0.20 0.99 -0.06 1.37 -0.17 -0.72 1463.086
1.95 1005.54 4054.01 7452.05 2.28 0.33 0.61 0.19 0.98 -0.06 1.38 -0.16 -0.73 1463.586
1.87 1005.55 4054.01 7452.05 2.33 0.38 0.53 0.17 0.97 -0.05 1.38 -0.16 -0.72 1464.11
1.79 1005.56 4054.01 7452.05 2.04 0.29 0.31 0.19 0.98 -0.06 1.37 -0.17 -0.72 1464.588
2.14 1005.52 4054.01 7452.05 2.19 0.24 0.55 0.20 0.99 -0.07 1.38 -0.17 -0.72 1465.111
1.69 1005.57 4054.01 7452.05 2.07 0.45 0.67 0.20 0.99 -0.06 1.37 -0.17 -0.73 1465.59
2.25 1005.50 4054.01 7452.05 0.07 0.55 0.75 0.20 0.99 -0.05 1.38 -0.17 -0.73 1466.137
2.10 1005.52 4054.01 7452.05 2.49 0.41 0.64 0.19 0.99 -0.06 1.37 -0.17 -0.72 1466.592
2.16 1005.52 4054.01 7452.05 2.26 0.39 0.47 0.20 0.99 -0.06 1.38 -0.16 -0.73 1467.144
2.98 1005.42 4054.01 7452.05 2.10 0.50 0.73 0.20 0.99 -0.06 1.37 -0.17 -0.73 1467.598
2.06 1005.53 4054.01 7452.05 2.08 0.30 0.43 0.21 0.97 -0.07 1.37 -0.16 -0.73 1468.142
1.89 1005.55 4054.01 7452.05 2.34 0.38 0.71 0.19 0.99 -0.06 1.37 -0.17 -0.72 1468.6
2.20 1005.51 4054.01 7452.05 4.45 0.45 0.66 0.19 0.99 -0.06 1.37 -0.16 -0.73 1469.144
2.37 1005.49 4054.01 7452.05 2.29 0.41 0.51 0.19 0.99 -0.06 1.37 -0.17 -0.73 1469.602
2.63 1005.46 4054.01 7452.05 2.12 0.23 0.44 0.21 0.98 -0.07 1.37 -0.17 -0.72 1470.149
2.04 1005.53 4054.01 7452.05 1.99 0.24 0.53 0.19 0.99 -0.08 1.37 -0.17 -0.73 1470.604
2.58 1005.47 4054.01 7452.05 2.14 0.34 0.33 0.19 0.98 -0.05 1.37 -0.17 -0.72 1471.139
2.45 1005.48 4054.01 7452.05 2.25 0.46 0.60 0.18 0.98 -0.05 1.37 -0.16 -0.73 1471.606
2.58 1005.47 4054.01 7452.05 2.24 0.45 0.67 0.18 0.98 -0.07 1.38 -0.16 -0.73 1472.158
2.44 1005.48 4054.01 7452.05 1.91 0.16 0.57 0.20 0.98 -0.07 1.38 -0.16 -0.72 1472.608
2.56 1005.47 4054.01 7452.05 2.40 0.17 0.55 0.19 0.99 -0.05 1.37 -0.16 -0.73 1473.14
2.50 1005.48 4054.01 7452.05 2.00 0.27 0.60 0.18 0.98 -0.06 1.38 -0.16 -0.72 1473.61
2.14 1005.52 4054.01 7452.05 1.84 0.35 0.54 0.21 0.99 -0.05 1.38 -0.17 -0.72 1474.148
2.12 1005.52 4054.01 7452.05 2.19 0.31 0.81 0.20 0.99 -0.06 1.37 -0.16 -0.72 1474.612
2.54 1005.47 4054.01 7452.05 2.40 0.63 0.60 0.22 0.97 -0.05 1.38 -0.16 -0.73 1475.159
2.73 1005.45 4054.01 7452.05 2.34 0.45 0.71 0.19 0.98 -0.04 1.38 -0.17 -0.72 1475.614
2.27 1005.50 4054.01 7452.05 2.32 0.23 0.76 0.20 0.99 -0.06 1.37 -0.17 -0.72 1476.141
2.10 1005.52 4054.01 7452.05 2.31 0.43 0.76 0.19 0.98 -0.06 1.37 -0.17 -0.73 1476.616
2.35 1005.49 4054.01 7452.05 2.44 0.43 0.63 0.19 0.99 -0.06 1.37 -0.17 -0.72 1477.149
2.32 1005.50 4054.01 7452.05 2.08 0.25 0.55 0.20 0.98 -0.06 1.37 -0.17 -0.72 1477.618
2.78 1005.44 4054.01 7452.05 2.20 0.42 0.48 0.20 0.99 -0.06 1.37 -0.17 -0.72 1478.151
1.89 1005.55 4054.01 7452.05 2.61 0.52 0.49 0.20 0.99 -0.05 1.37 -0.17 -0.72 1478.62
2.36 1005.49 4054.01 7452.05 4.42 0.71 0.55 0.20 0.99 -0.06 1.37 -0.17 -0.73 1479.139
1.69 1005.57 4054.01 7452.05 2.07 0.21 0.45 0.20 0.99 -0.05 1.37 -0.16 -0.72 1479.622
2.22 1005.51 4054.01 7452.05 2.01 0.40 0.66 0.20 0.98 -0.06 1.37 -0.17 -0.72 1480.129
1.43 1005.60 4054.01 7452.05 2.35 0.27 0.57 0.20 0.98 -0.06 1.37 -0.17 -0.72 1480.625
2.21 1005.51 4054.01 7452.05 2.08 0.52 0.54 0.19 0.99 -0.06 1.37 -0.17 -0.72 1481.169
2.32 1005.50 4054.01 7452.05 2.40 0.34 0.60 0.19 0.98 -0.06 1.37 -0.17 -0.72 1481.627
1.97 1005.54 4054.01 7452.05 2.20 0.53 0.76 0.19 0.98 -0.06 1.37 -0.16 -0.72 1482.128
2.37 1005.49 4054.01 7452.05 2.18 0.42 0.56 0.19 0.99 -0.06 1.37 -0.17 -0.72 1482.63
2.65 1005.46 4054.01 7452.05 0.07 0.03 0.74 0.19 0.99 -0.06 1.37 -0.17 -0.72 1483.173
2.15 1005.52 4054.01 7452.05 2.46 0.36 0.71 0.19 0.98 -0.06 1.37 -0.17 -0.72 1483.631
2.54 1005.47 4054.01 7452.05 2.14 0.14 0.61 0.20 0.99 -0.06 1.37 -0.17 -0.72 1484.142
1.93 1005.54 4054.01 7452.05 2.13 0.43 0.41 0.20 0.99 -0.05 1.38 -0.17 -0.72 1484.634
2.02 1005.53 4054.01 7452.05 2.34 0.21 0.49 0.19 0.99 -0.06 1.37 -0.17 -0.72 1485.144
1.18 1005.63 4054.01 7452.05 2.27 0.35 0.67 0.19 0.98 -0.06 1.37 -0.17 -0.71 1485.635
1.91 1005.55 4054.01 7452.05 2.35 0.46 0.46 0.20 0.98 -0.06 1.37 -0.16 -0.73 1486.137
1.96 1005.54 4054.01 7452.05 2.02 0.44 0.36 0.19 0.98 -0.06 1.37 -0.17 -0.73 1486.638
1.92 1005.54 4054.01 7452.05 1.92 0.37 0.37 0.19 0.99 -0.06 1.37 -0.16 -0.72 1487.181
1.77 1005.56 4054.01 7452.05 2.10 0.45 0.34 0.20 0.99 -0.06 1.38 -0.17 -0.72 1487.639
1.84 1005.55 4054.01 7452.05 2.17 0.55 0.45 0.19 0.98 -0.05 1.38 -0.17 -0.73 1488.184
1.83 1005.56 4054.01 7452.05 2.21 0.38 0.50 0.19 0.99 -0.06 1.38 -0.16 -0.73 1488.642
2.14 1005.52 4054.01 7452.05 2.04 0.36 0.53 0.20 0.99 -0.04 1.38 -0.17 -0.72 1489.179
2.00 1005.54 4054.01 7452.05 2.30 0.26 0.66 0.19 0.98 -0.06 1.38 -0.17 -0.72 1489.643
2.04 1005.53 4054.01 7452.05 4.42 0.26 0.58 0.18 0.98 -0.05 1.37 -0.17 -0.72 1490.18
2.43 1005.48 4054.01 7452.05 2.26 0.21 0.45 0.20 0.97 -0.06 1.38 -0.17 -0.71 1490.646
2.52 1005.47 4054.01 7452.05 2.14 0.25 0.51 0.20 0.99 -0.07 1.37 -0.17 -0.71 1491.184
1.95 1005.54 4054.01 7452.05 1.85 0.29 0.52 0.19 0.98 -0.06 1.38 -0.16 -0.72 1491.647
2.05 1005.53 4054.01 7452.05 2.17 0.21 0.68 0.19 0.98 -0.06 1.37 -0.17 -0.72 1492.15
1.66 1005.57 4054.01 7452.05 2.16 0.23 0.64 0.19 0.99 -0.06 1.38 -0.17 -0.72 1492.649
2.36 1005.49 4054.01 7452.05 2.09 0.23 0.62 0.17 0.99 -0.07 1.37 -0.16 -0.72 1493.187
2.19 1005.51 4054.01 7452.05 2.00 0.34 0.64 0.19 0.99 -0.06 1.38 -0.17 -0.72 1493.651
2.03 1005.53 4054.01 7452.05 2.13 0.59 0.76 0.20 0.98 -0.06 1.37 -0.17 -0.73 1494.158
2.28 1005.50 4054.01 7452.05 2.07 0.35 0.89 0.19 1.00 -0.06 1.37 -0.16 -0.72 1494.653
2.62 1005.46 4054.01 7452.05 2.27 0.15 0.60 0.18 0.99 -0.06 1.37 -0.17 -0.72 1495.162
2.25 1005.51 4054.01 7452.05 2.14 0.25 0.61 0.20 0.99 -0.06 1.38 -0.17 -0.72 1495.655
2.67 1005.46 4054.01 7452.05 2.51 0.46 0.70 0.20 0.99 -0.06 1.37 -0.16 -0.72 1496.168
1.83 1005.56 4054.01 7452.05 2.21 0.52 0.60 0.19 1.00 -0.06 1.37 -0.17 -0.72 1496.657
2.43 1005.48 4054.00 7452.05 2.06 0.16 0.56 0.20 1.00 -0.04 1.38 -0.17 -0.72 1497.194
2.34 1005.49 4054.00 7452.05 2.21 0.45 0.50 0.19 0.99 -0.06 1.38 -0.17 -0.71 1497.659
2.23 1005.51 4054.00 7452.05 2.32 0.18 0.60 0.18 1.00 -0.05 1.37 -0.17 -0.72 1498.162
2.43 1005.48 4054.00 7452.05 2.07 0.61 0.69 0.19 0.98 -0.06 1.37 -0.17 -0.72 1498.662
2.71 1005.45 4054.00 7452.05 2.31 0.41 0.72 0.20 0.99 -0.06 1.37 -0.17 -0.72 1499.163
1.98 1005.54 4054.00 7452.05 2.22 0.36 0.63 0.19 0.99 -0.06 1.37 -0.17 -0.72 1499.664
2.49 1005.48 4054.00 7452.05 2.22 0.33 0.35 0.18 0.98 -0.06 1.37 -0.17 -0.73 1500.169
1.80 1005.56 4054.00 7452.05 1.99 0.31 0.61 0.19 0.98 -0.06 1.37 -0.17 -0.72 1500.666
2.58 1005.47 4054.00 7452.05 2.35 0.35 0.72 0.18 0.98 -0.06 1.37 -0.17 -0.72 1501.167
2.49 1005.48 4054.00 7452.05 2.23 0.41 0.56 0.19 0.99 -0.06 1.38 -0.17 -0.72 1501.668
2.22 1005.51 4054.00 7452.05 2.16 0.54 0.57 0.20 0.98 -0.07 1.37 -0.17 -0.72 1502.17
2.25 1005.50 4054.00 7452.05 2.33 0.33 0.67 0.20 0.98 -0.06 1.37 -0.17 -0.73 1502.67
1.93 1005.54 4054.00 7452.05 2.15 0.28 0.56 0.21 0.99 -0.07 1.37 -0.17 -0.73 1503.171
1.83 1005.55 4054.00 7452.05 2.22 0.25 0.71 0.19 0.98 -0.06 1.37 -0.17 -0.72 1503.672
2.23 1005.51 4054.00 7452.05 2.12 0.42 0.84 0.18 0.98 -0.06 1.37 -0.17 -0.71 1504.174
2.40 1005.49 4054.00 7452.05 2.28 0.51 0.46 0.19 0.99 -0.05 1.36 -0.17 -0.72 1504.674
1.95 1005.54 4054.00 7452.05 2.12 0.50 0.50 0.17 0.98 -0.07 1.37 -0.17 -0.72 1505.211
1.95 1005.54 4054.00 7452.05 1.87 0.31 0.57 0.19 0.98 -0.06 1.37 -0.17 -0.73 1505.676
2.04 1005.53 4054.00 7452.05 1.91 0.30 0.50 0.19 0.99 -0.06 1.37 -0.17 -0.71 1506.208
2.13 1005.52 4054.00 7452.05 2.27 0.31 0.43 0.20 0.99 -0.06 1.37 -0.17 -0.73 1506.678
1.84 1005.55 4054.00 7452.05 2.21 0.35 0.55 0.19 0.99 -0.06 1.37 -0.17 -0.72 1507.179
1.73 1005.57 4054.00 7452.05 2.21 0.43 0.63 0.19 0.98 -0.06 1.37 -0.17 -0.72 1507.68
1.96 1005.54 4054.00 7452.05 2.27 0.41 0.57 0.19 0.99 -0.06 1.37 -0.17 -0.73 1508.216
1.66 1005.57 4054.00 7452.05 2.14 0.46 0.54 0.20 0.99 -0.06 1.37 -0.17 -0.73 1508.682
2.22 1005.51 4054.00 7452.05 2.22 0.41 0.59 0.19 0.99 -0.06 1.37 -0.17 -0.72 1509.209
2.19 1005.51 4054.00 7452.05 2.05 0.42 0.43 0.19 0.98 -0.06 1.37 -0.17 -0.72 1509.684
2.25 1005.50 4054.00 7452.05 4.35 0.35 0.61 0.19 0.98 -0.05 1.37 -0.17 -0.72 1510.2
1.75 1005.56 4054.00 7452.05 2.24 0.46 0.58 0.19 0.99 -0.06 1.37 -0.17 -0.73 1510.686
1.85 1005.55 4054.00 7452.05 2.24 0.41 0.38 0.19 0.99 -0.06 1.38 -0.17 -0.72 1511.209
1.54 1005.59 4054.00 7452.05 2.35 0.45 0.75 0.20 0.98 -0.06 1.37 -0.17 -0.72 1511.688
1.74 1005.57 4054.00 7452.05 2.55 0.44 0.59 0.20 0.99 -0.06 1.37 -0.16 -0.72 1512.219
2.11 1005.52 4054.00 7452.05 1.98 0.19 0.85 0.20 0.99 -0.06 1.37 -0.17 -0.73 1512.69
2.42 1005.48 4054.00 7452.05 0.10 0.20 0.49 0.19 0.99 -0.05 1.37 -0.17 -0.72 1513.191
2.34 1005.49 4054.00 7452.05 2.28 0.54 0.32 0.19 0.98 -0.06 1.37 -0.17 -0.72 1513.692
1.94 1005.54 4054.00 7452.05 2.21 0.29 0.64 0.19 0.99 -0.06 1.37 -0.17 -0.73 1514.2
1.75 1005.57 4054.00 7452.05 2.41 0.19 0.61 0.20 1.00 -0.06 1.36 -0.16 -0.73 1514.694
1.94 1005.54 4054.00 7452.05 2.23 0.23 0.64 0.19 0.98 -0.06 1.37 -0.16 -0.72 1515.195
2.15 1005.52 4054.00 7452.05 2.14 0.25 0.57 0.20 0.98 -0.06 1.37 -0.16 -0.72 1515.697
2.03 1005.53 4054.00 7452.05 2.20 0.37 0.72 0.20 0.98 -0.05 1.37 -0.17 -0.73 1516.198
2.43 1005.48 4054.00 7452.05 2.09 0.50 0.50 0.19 0.98 -0.06 1.37 -0.16 -0.73 1516.699
1.95 1005.54 4054.00 7452.05 2.13 0.30 0.59 0.20 0.99 -0.06 1.37 -0.17 -0.72 1517.2
1.90 1005.55 4054.00 7452.05 2.35 0.25 0.60 0.19 0.99 -0.06 1.37 -0.17 -0.73 1517.702
1.74 1005.57 4054.00 7452.05 2.04 0.63 0.58 0.19 0.99 -0.06 1.37 -0.17 -0.73 1518.221
2.49 1005.48 4054.00 7452.05 2.41 0.31 0.45 0.19 0.99 -0.06 1.37 -0.17 -0.73 1518.703
1.92 1005.54 4054.00 7452.05 2.51 0.21 0.36 0.20 0.99 -0.05 1.37 -0.17 -0.72 1519.204
1.74 1005.57 4054.00 7452.05 2.17 0.52 0.66 0.19 0.98 -0.06 1.37 -0.17 -0.73 1519.706
1.91 1005.55 4054.00 7452.05 2.14 0.44 0.45 0.20 0.98 -0.07 1.37 -0.17 -0.72 1520.206
1.79 1005.56 4054.00 7452.05 2.26 0.28 0.58 0.19 0.98 -0.06 1.37 -0.16 -0.73 1520.707
2.15 1005.52 4054.00 7452.05 2.13 0.56 0.60 0.19 0.98 -0.05 1.37 -0.16 -0.72 1521.208
1.87 1005.55 4054.00 7452.05 2.14 0.42 0.71 0.19 0.99 -0.06 1.37 -0.17 -0.73 1521.71
1.87 1005.55 4054.00 7452.05 2.32 0.25 0.91 0.19 0.99 -0.06 1.37 -0.17 -0.73 1522.21
2.16 1005.52 4054.00 7452.05 2.04 0.17 0.48 0.19 0.99 -0.06 1.37 -0.16 -0.73 1522.711
1.80 1005.56 4054.00 7452.05 2.24 0.42 0.56 0.20 0.99 -0.06 1.37 -0.17 -0.72 1523.212
1.91 1005.55 4054.00 7452.05 2.17 0.25 0.47 0.20 0.98 -0.06 1.37 -0.17 -0.72 1523.714
2.09 1005.52 4054.00 7452.05 2.18 0.41 0.65 0.19 0.98 -0.05 1.37 -0.17 -0.73 1524.214
1.88 1005.55 4054.00 7452.05 2.35 0.38 0.60 0.19 0.99 -0.06 1.37 -0.16 -0.73 1524.715
2.02 1005.53 4054.00 7452.05 2.16 0.38 0.46 0.21 0.99 -0.06 1.37 -0.17 -0.73 1525.216
1.74 1005.57 4054.00 7452.05 2.00 0.42 0.47 0.19 0.98 -0.06 1.37 -0.17 -0.73 1525.718
2.28 1005.50 4054.00 7452.05 2.45 0.49 0.45 0.18 0.99 -0.06 1.37 -0.17 -0.73 1526.218
1.78 1005.56 4054.00 7452.05 2.13 0.48 0.65 0.19 0.99 -0.06 1.37 -0.16 -0.72 1526.719
2.15 1005.52 4054.00 7452.05 2.30 0.31 0.63 0.19 0.98 -0.05 1.37 -0.17 -0.72 1527.22
1.92 1005.54 4054.00 7452.05 2.24 0.31 0.60 0.19 0.98 -0.06 1.37 -0.17 -0.72 1527.721
1.61 1005.58 4054.00 7452.05 2.33 0.56 0.60 0.18 0.99 -0.05 1.37 -0.17 -0.72 1528.222
2.02 1005.53 4054.00 7452.05 2.21 0.31 0.54 0.19 0.99 -0.06 1.37 -0.17 -0.73 1528.723
1.91 1005.55 4054.00 7452.05 2.38 0.38 0.50 0.19 0.98 -0.06 1.37 -0.17 -0.73 1529.225
1.93 1005.54 4054.00 7452.05 2.26 0.36 0.63 0.20 0.99 -0.06 1.37 -0.17 -0.72 1529.726
2.21 1005.51 4054.00 7452.05 2.49 0.36 0.71 0.19 0.99 -0.05 1.37 -0.17 -0.73 1530.227
1.75 1005.56 4054.00 7452.05 2.02 0.24 0.48 0.19 1.00 -0.06 1.37 -0.17 -0.72 1530.728
2.02 1005.53 4054.00 7452.05 2.21 0.27 0.46 0.20 0.99 -0.06 1.37 -0.17 -0.74 1531.229
1.87 1005.55 4054.00 7452.05 2.15 0.31 0.63 0.19 0.98 -0.06 1.37 -0.17 -0.72 1531.73
2.02 1005.53 4054.01 7452.05 2.30 0.32 0.53 0.17 0.99 -0.06 1.37 -0.16 -0.73 1532.231
1.93 1005.54 4054.01 7452.05 2.14 0.36 0.45 0.20 0.98 -0.06 1.37 -0.16 -0.73 1532.732
1.80 1005.56 4054.01 7452.05 2.07 0.60 0.69 0.18 0.98 -0.05 1.37 -0.17 -0.73 1533.233
1.89 1005.55 4054.01 7452.05 2.13 0.12 0.89 0.19 0.98 -0.06 1.37 -0.17 -0.73 1533.734
1.75 1005.56 4054.01 7452.05 2.01 0.17 0.47 0.20 0.98 -0.07 1.37 -0.17 -0.72 1534.235
2.06 1005.53 4054.01 7452.05 2.21 0.26 0.56 0.19 0.99 -0.06 1.37 -0.17 -0.73 1534.736
2.22 1005.51 4054.01 7452.05 2.21 0.52 0.41 0.20 0.99 -0.07 1.37 -0.17 -0.73 1535.238
1.58 1005.59 4054.01 7452.05 2.11 0.25 0.59 0.19 0.99 -0.06 1.36 -0.17 -0.72 1535.738
1.88 1005.55 4054.01 7452.05 1.86 0.31 0.39 0.19 0.99 -0.06 1.37 -0.17 -0.73 1536.239
2.22 1005.51 4054.01 7452.05 2.01 0.29 0.41 0.19 0.99 -0.06 1.37 -0.16 -0.73 1536.74
1.19 1005.63 4054.01 7452.05 2.49 0.03 0.38 0.20 0.98 -0.06 1.37 -0.17 -0.73 1537.242
1.81 1005.56 4054.01 7452.05 2.30 0.43 0.68 0.19 0.99 -0.06 1.37 -0.16 -0.73 1537.742
1.44 1005.60 4054.01 7452.05 2.12 0.32 0.58 0.20 0.98 -0.06 1.37 -0.17 -0.73 1538.243
2.18 1005.51 4054.01 7452.05 2.32 0.17 0.57 0.19 0.99 -0.06 1.37 -0.17 -0.72 1538.744
2.12 1005.52 4054.01 7452.05 0.07 0.38 0.55 0.19 0.99 -0.06 1.37 -0.17 -0.72 1539.246
1.98 1005.54 4054.01 7452.05 2.27 0.52 0.42 0.19 0.99 -0.06 1.37 -0.17 -0.73 1539.746
2.01 1005.53 4054.01 7452.05 2.39 0.42 0.67 0.19 0.99 -0.06 1.37 -0.17 -0.73 1540.247
2.32 1005.50 4054.01 7452.05 2.11 0.45 0.55 0.19 0.98 -0.06 1.37 -0.17 -0.72 1540.748
1.42 1005.60 4054.01 7452.05 2.11 0.45 0.55 0.19 0.98 -0.06 1.37 -0.17 -0.72 1541.25
1.90 1005.55 4054.01 7452.05 2.31 0.38 0.66 0.19 0.98 -0.06 1.37 -0.16 -0.73 1541.75
1.70 1005.57 4054.01 7452.05 2.21 0.25 0.67 0.20 0.99 -0.06 1.37 -0.16 -0.72 1542.251
1.90 1005.55 4054.01 7452.05 2.28 0.20 0.67 0.19 0.98 -0.06 1.37 -0.16 -0.73 1542.752
2.07 1005.53 4054.01 7452.05 0.01 0.38 0.54 0.19 0.99 -0.06 1.37 -0.16 -0.73 1543.254
1.68 1005.57 4054.01 7452.05 2.08 0.22 0.45 0.19 0.99 -0.06 1.37 -0.17 -0.73 1543.754
1.96 1005.54 4054.01 7452.05 2.26 0.50 0.58 0.19 0.99 -0.06 1.37 -0.17 -0.73 1544.255
1.55 1005.59 4054.01 7452.05 2.14 0.19 0.52 0.19 0.98 -0.06 1.37 -0.17 -0.72 1544.756
1.79 1005.56 4054.01 7452.05 2.25 0.37 0.53 0.19 0.98 -0.06 1.37 -0.17 -0.73 1545.257
2.02 1005.53 4054.01 7452.05 2.33 0.57 0.67 0.19 0.98 -0.06 1.37 -0.17 -0.73 1545.758
2.05 1005.53 4054.01 7452.05 2.57 0.27 0.55 0.20 0.98 -0.06 1.37 -0.16 -0.73 1546.259
1.57 1005.59 4054.01 7452.05 2.09 0.43 0.70 0.19 0.98 -0.06 1.37 -0.16 -0.72 1546.76
1.83 1005.56 4054.01 7452.05 2.14 0.36 0.52 0.19 0.98 -0.05 1.37 -0.17 -0.73 1547.261
1.63 1005.58 4054.01 7452.05 2.18 0.28 0.38 0.20 0.98 -0.06 1.37 -0.17 -0.72 1547.762
1.54 1005.59 4054.01 7452.05 2.35 0.38 0.62 0.20 0.98 -0.05 1.37 -0.16 -0.73 1548.263
2.11 1005.52 4054.01 7452.05 2.51 0.29 0.68 0.19 0.98 -0.06 1.37 -0.16 -0.73 1548.764
1.64 1005.58 4054.01 7452.05 2.22 0.46 0.52 0.19 0.99 -0.06 1.37 -0.17 -0.72 1549.265
1.77 1005.56 4054.01 7452.05 2.37 0.57 0.61 0.18 0.98 -0.06 1.37 -0.17 -0.73 1549.766
2.02 1005.53 4054.01 7452.05 2.37 0.52 0.52 0.19 0.99 -0.06 1.37 -0.16 -0.73 1550.267
1.95 1005.54 4054.01 7452.05 2.27 0.27 0.57 0.18 0.98 -0.06 1.37 -0.17 -0.73 1550.769
1.42 1005.60 4054.01 7452.05 2.17 0.35 0.56 0.19 0.98 -0.06 1.37 -0.16 -0.72 1551.27
1.77 1005.56 4054.01 7452.05 2.14 0.29 0.44 0.19 0.99 -0.06 1.37 -0.16 -0.73 1551.771
1.81 1005.56 4054.01 7452.05 2.23 0.28 0.47 0.19 0.99 -0.06 1.37 -0.16 -0.73 1552.272
2.09 1005.52 4054.01 7452.05 2.13 0.42 0.53 0.20 0.98 -0.07 1.36 -0.17 -0.73 1552.774
1.51 1005.59 4054.01 7452.05 2.27 0.33 0.52 0.19 0.98 -0.06 1.37 -0.17 -0.73 1553.274
1.83 1005.56 4054.01 7452.05 2.12 0.25 0.63 0.21 0.98 -0.07 1.37 -0.16 -0.72 1553.775
2.04 1005.53 4054.01 7452.05 2.59 0.34 0.77 0.19 0.98 -0.06 1.37 -0.16 -0.73 1554.276
1.76 1005.56 4054.01 7452.05 2.01 0.23 0.63 0.20 0.99 -0.07 1.37 -0.16 -0.73 1554.778
1.87 1005.55 4054.01 7452.05 2.22 0.41 0.37 0.20 0.98 -0.06 1.37 -0.16 -0.73 1555.278
2.15 1005.52 4054.01 7452.05 2.56 0.41 0.40 0.21 0.98 -0.06 1.37 -0.16 -0.73 1555.779
1.87 1005.55 4054.01 7452.05 2.23 0.55 0.55 0.19 0.97 -0.06 1.37 -0.16 -0.73 1556.28
1.76 1005.56 4054.01 7452.05 4.36 0.06 0.68 0.18 0.98 -0.06 1.37 -0.16 -0.72 1556.782
1.07 1005.65 4054.01 7452.05 2.38 0.36 0.86 0.19 0.98 -0.06 1.37 -0.17 -0.73 1557.282
1.76 1005.56 4054.01 7452.05 2.40 0.41 0.51 0.19 0.98 -0.06 1.37 -0.17 -0.72 1557.783
2.04 1005.53 4054.01 7452.05 2.21 0.17 0.56 0.19 1.00 -0.06 1.37 -0.16 -0.73 1558.284
1.76 1005.56 4054.01 7452.05 0.02 0.40 0.32 0.19 0.99 -0.06 1.37 -0.16 -0.73 1558.786
1.74 1005.57 4054.01 7452.05 2.47 0.42 0.53 0.20 0.99 -0.06 1.37 -0.16 -0.73 1559.286
2.16 1005.52 4054.01 7452.05 2.21 0.42 0.58 0.19 0.98 -0.06 1.37 -0.16 -0.73 1559.787
2.11 1005.52 4054.01 7452.05 2.14 0.45 0.63 0.21 0.99 -0.06 1.37 -0.16 -0.72 1560.288
2.10 1005.52 4054.01 7452.05 2.24 0.03 0.70 0.19 0.98 -0.06 1.37 -0.16 -0.73 1560.79
1.65 1005.58 4054.01 7452.05 2.38 0.30 0.58 0.20 0.98 -0.05 1.37 -0.16 -0.73 1561.29
1.91 1005.55 4054.01 7452.05 2.14 0.35 0.67 0.19 0.99 -0.05 1.37 -0.17 -0.73 1561.791
1.94 1005.54 4054.01 7452.05 2.28 0.21 0.55 0.21 0.98 -0.06 1.37 -0.16 -0.72 1562.292
1.99 1005.54 4054.01 7452.05 2.35 0.39 0.52 0.19 0.99 -0.06 1.37 -0.17 -0.72 1562.793
1.47 1005.60 4054.01 7452.05 2.45 0.33 0.70 0.19 0.98 -0.05 1.36 -0.16 -0.72 1563.294
1.75 1005.56 4054.01 7452.05 2.07 0.34 0.64 0.19 0.98 -0.06 1.37 -0.16 -0.72 1563.795
1.63 1005.58 4054.01 7452.05 2.07 0.27 0.77 0.21 0.99 -0.06 1.37 -0.16 -0.73 1564.296
1.66 1005.58 4054.01 7452.05 2.28 0.23 0.49 0.19 0.99 -0.06 1.37 -0.16 -0.72 1564.797
1.75 1005.56 4054.01 7452.05 2.00 0.53 0.44 0.21 0.99 -0.05 1.37 -0.17 -0.72 1565.298
1.49 1005.60 4054.01 7452.05 2.10 0.18 0.54 0.19 0.99 -0.06 1.37 -0.16 -0.73 1565.799
1.33 1005.61 4054.01 7452.05 2.06 0.41 0.68 0.19 0.99 -0.06 1.37 -0.16 -0.73 1566.3
1.70 1005.57 4054.01 7452.05 2.31 0.33 0.44 0.19 0.99 -0.06 1.37 -0.16 -0.72 1566.801
1.69 1005.57 4054.01 7452.05 2.32 0.19 0.73 0.20 0.99 -0.06 1.37 -0.16 -0.73 1567.302
1.95 1005.54 4054.01 7452.05 2.42 0.24 0.80 0.19 0.99 -0.06 1.36 -0.16 -0.74 1567.803
1.47 1005.60 4054.01 7452.05 2.26 0.23 0.76 0.19 0.98 -0.06 1.36 -0.17 -0.73 1568.305
1.75 1005.56 4054.01 7452.05 2.12 0.38 0.56 0.19 0.99 -0.06 1.36 -0.17 -0.72 1568.806
2.27 1005.50 4054.01 7452.05 2.30 0.33 0.68 0.19 0.98 -0.06 1.37 -0.17 -0.73 1569.307
2.35 1005.49 4054.01 7452.05 2.04 0.43 0.45 0.19 0.99 -0.06 1.37 -0.16 -0.73 1569.808
2.06 1005.53 4054.01 7452.05 0.05 0.43 0.57 0.19 0.98 -0.06 1.37 -0.16 -0.73 1570.31
2.12 1005.52 4054.01 7452.05 2.21 0.28 0.76 0.19 0.99 -0.06 1.37 -0.16 -0.72 1570.81
1.79 1005.56 4054.01 7452.05 2.03 0.30 0.67 0.20 0.99 -0.05 1.37 -0.16 -0.73 1571.311
1.76 1005.56 4054.01 7452.05 2.15 0.41 0.49 0.19 0.99 -0.06 1.37 -0.16 -0.73 1571.812
2.04 1005.53 4054.01 7452.05 2.44 0.40 0.71 0.19 0.98 -0.06 1.37 -0.16 -0.72 1572.314
2.06 1005.53 4054.01 7452.05 2.25 0.19 0.50 0.20 0.99 -0.06 1.37 -0.17 -0.73 1572.814
1.92 1005.55 4054.01 7452.05 2.32 0.27 0.80 0.19 0.99 -0.06 1.37 -0.16 -0.73 1573.315
2.15 1005.52 4054.01 7452.05 2.23 0.13 0.44 0.20 0.99 -0.06 1.37 -0.16 -0.72 1573.816
1.73 1005.57 4054.01 7452.05 2.46 0.26 0.60 0.19 0.98 -0.06 1.37 -0.16 -0.72 1574.318
2.19 1005.51 4054.01 7452.05 2.23 0.25 0.38 0.19 0.98 -0.06 1.37 -0.17 -0.72 1574.818
2.33 1005.50 4054.00 7452.05 2.46 0.18 0.59 0.19 0.98 -0.06 1.37 -0.17 -0.72 1575.319
1.90 1005.55 4054.00 7452.05 2.38 0.42 0.42 0.19 0.98 -0.06 1.36 -0.17 -0.72 1575.82
1.62 1005.58 4054.00 7452.05 2.17 0.35 0.61 0.19 0.99 -0.06 1.37 -0.16 -0.72 1576.322
2.52 1005.47 4054.00 7452.05 2.22 0.45 0.45 0.19 0.99 -0.06 1.36 -0.16 -0.73 1576.822
2.17 1005.51 4054.00 7452.05 2.10 0.21 0.47 0.19 0.98 -0.06 1.36 -0.16 -0.72 1577.323
1.96 1005.54 4054.00 7452.05 2.35 0.15 0.47 0.19 0.98 -0.06 1.37 -0.17 -0.72 1577.824
2.02 1005.53 4054.00 7452.05 2.38 0.38 0.70 0.19 0.98 -0.06 1.37 -0.17 -0.73 1578.326
1.77 1005.56 4054.00 7452.05 2.17 0.32 0.61 0.20 0.99 -0.06 1.37 -0.16 -0.72 1578.826
2.02 1005.53 4054.00 7452.05 2.22 0.34 0.34 0.20 0.98 -0.06 1.37 -0.17 -0.73 1579.327
2.14 1005.52 4054.00 7452.05 2.29 0.49 0.51 0.18 0.99 -0.05 1.37 -0.16 -0.73 1579.828
2.10 1005.52 4054.00 7452.05 2.33 0.30 0.54 0.19 0.98 -0.06 1.37 -0.16 -0.73 1580.329
1.69 1005.57 4054.00 7452.05 2.27 0.40 0.69 0.19 0.98 -0.05 1.37 -0.16 -0.72 1580.83
1.91 1005.55 4054.00 7452.05 2.49 0.31 0.41 0.19 0.99 -0.06 1.37 -0.17 -0.73 1581.331
2.08 1005.53 4054.00 7452.05 2.38 0.26 0.52 0.19 0.99 -0.05 1.37 -0.16 -0.72 1581.832
2.44 1005.48 4054.00 7452.05 2.53 0.36 0.47 0.19 0.99 -0.05 1.37 -0.16 -0.72 1582.333
2.05 1005.53 4054.00 7452.05 2.13 0.14 0.50 0.17 0.98 -0.06 1.37 -0.16 -0.72 1582.834
2.06 1005.53 4054.00 7452.05 2.36 0.33 0.45 0.19 0.99 -0.06 1.37 -0.16 -0.72 1583.335
2.64 1005.46 4054.00 7452.05 2.43 0.35 0.59 0.20 0.98 -0.07 1.37 -0.16 -0.73 1583.836
1.74 1005.57 4054.00 7452.05 2.20 0.41 0.55 0.19 0.99 -0.06 1.37 -0.16 -0.73 1584.337
2.05 1005.53 4054.00 7452.05 2.30 0.37 0.52 0.20 0.99 -0.07 1.37 -0.16 -0.72 1584.838
2.12 1005.52 4054.00 7452.05 2.22 0.42 0.49 0.19 0.98 -0.06 1.37 -0.17 -0.73 1585.339
2.21 1005.51 4054.00 7452.05 2.11 0.47 0.55 0.21 0.98 -0.07 1.36 -0.17 -0.73 1585.841
1.64 1005.58 4054.00 7452.05 2.56 0.51 0.51 0.19 0.98 -0.06 1.37 -0.16 -0.72 1586.342
2.04 1005.53 4054.00 7452.05 2.18 0.28 0.53 0.21 0.98 -0.05 1.37 -0.16 -0.72 1586.843
2.04 1005.53 4054.00 7452.05 2.17 0.31 0.41 0.19 0.99 -0.06 1.37 -0.16 -0.72 1587.344
1.95 1005.54 4054.00 7452.05 2.23 0.30 0.51 0.20 0.99 -0.07 1.37 -0.16 -0.72 1587.846
2.09 1005.52 4054.00 7452.05 2.22 0.16 0.61 0.19 0.98 -0.06 1.37 -0.16 -0.73 1588.346
1.76 1005.56 4054.00 7452.05 2.42 0.29 0.59 0.19 0.98 -0.06 1.37 -0.16 -0.73 1588.847
2.38 1005.49 4054.00 7452.05 2.27 0.38 0.59 0.19 0.99 -0.06 1.37 -0.16 -0.72 1589.348
2.54 1005.47 4054.00 7452.05 2.15 0.43 0.65 0.18 0.99 -0.05 1.37 -0.16 -0.73 1589.85
2.13 1005.52 4054.00 7452.05 2.37 0.31 0.44 0.19 0.98 -0.06 1.37 -0.16 -0.72 1590.35
1.56 1005.59 4054.00 7452.05 2.25 0.29 0.45 0.20 0.99 -0.05 1.37 -0.16 -0.72 1590.851
1.74 1005.57 4054.00 7452.05 2.49 0.40 0.53 0.19 0.99 -0.06 1.36 -0.16 -0.72 1591.352
2.75 1005.45 4054.00 7452.05 1.96 0.29 0.34 0.19 0.98 -0.05 1.37 -0.16 -0.73 1591.854
2.34 1005.50 4054.00 7452.05 2.12 0.52 0.47 0.20 0.98 -0.06 1.37 -0.16 -0.71 1592.354
2.07 1005.53 4054.00 7452.05 2.35 0.38 0.54 0.20 0.99 -0.06 1.37 -0.16 -0.72 1592.855
2.22 1005.51 4054.00 7452.05 2.33 0.20 0.37 0.19 0.98 -0.06 1.37 -0.17 -0.72 1593.356
2.16 1005.52 4054.00 7452.05 2.26 0.26 0.39 0.20 0.98 -0.06 1.37 -0.17 -0.73 1593.858
2.01 1005.53 4054.00 7452.05 2.22 0.38 0.70 0.19 0.99 -0.06 1.37 -0.16 -0.74 1594.358
2.13 1005.52 4054.00 7452.05 2.18 0.35 0.34 0.19 0.98 -0.06 1.37 -0.16 -0.73 1594.859
2.32 1005.50 4054.00 7452.05 2.25 0.49 0.40 0.19 0.99 -0.06 1.36 -0.16 -0.74 1595.36
1.79 1005.56 4054.00 7452.05 2.09 0.44 0.53 0.19 0.98 -0.06 1.37 -0.16 -0.73 1595.862
2.01 1005.53 4054.00 7452.05 2.38 0.29 0.64 0.19 0.99 -0.06 1.37 -0.16 -0.73 1596.362
2.22 1005.51 4054.00 7452.05 2.17 0.16 0.53 0.19 0.98 -0.06 1.37 -0.16 -0.72 1596.863
1.91 1005.55 4054.00 7452.05 4.44 0.25 0.38 0.19 0.98 -0.06 1.37 -0.16 -0.73 1597.364
1.59 1005.58 4054.00 7452.05 2.23 0.38 0.66 0.20 0.98 -0.06 1.37 -0.16 -0.72 1597.865
2.16 1005.52 4054.00 7452.05 2.16 0.35 0.45 0.20 0.98 -0.06 1.37 -0.16 -0.73 1598.366
2.29 1005.50 4054.00 7452.05 2.14 0.45 0.64 0.19 0.99 -0.06 1.37 -0.16 -0.72 1598.867
2.16 1005.52 4054.00 7452.05 2.34 0.28 0.69 0.19 0.99 -0.06 1.37 -0.16 -0.73 1599.368
2.01 1005.53 4054.00 7452.05 2.54 0.41 0.61 0.19 0.98 -0.06 1.37 -0.16 -0.72 1599.869
2.31 1005.50 4054.00 7452.05 1.91 0.59 0.45 0.19 0.98 -0.06 1.37 -0.17 -0.72 1600.37
2.06 1005.53 4054.00 7452.05 2.20 0.33 0.56 0.19 0.98 -0.06 1.37 -0.16 -0.72 1600.871
2.47 1005.48 4054.00 7452.05 2.33 0.28 0.50 0.19 0.99 -0.06 1.37 -0.16 -0.72 1601.372
1.74 1005.57 4054.00 7452.05 2.22 0.17 0.55 0.19 0.99 -0.05 1.37 -0.16 -0.73 1601.873
1.86 1005.55 4054.00 7452.05 2.07 0.29 0.64 0.19 0.99 -0.06 1.37 -0.16 -0.72 1602.374
2.20 1005.51 4054.00 7452.05 2.47 0.22 0.64 0.19 0.98 -0.06 1.37 -0.16 -0.72 1602.875
2.11 1005.52 4054.00 7452.05 1.86 0.05 0.56 0.19 0.99 -0.06 1.37 -0.16 -0.72 1603.377
2.34 1005.49 4054.00 7452.05 2.34 0.32 0.50 0.19 0.99 -0.06 1.37 -0.16 -0.72 1603.878
2.61 1005.46 4054.00 7452.05 2.32 0.31 0.43 0.20 0.98 -0.06 1.38 -0.16 -0.72 1604.379
1.84 1005.55 4054.00 7452.05 2.28 0.76 0.52 0.19 0.98 -0.06 1.37 -0.16 -0.72 1604.88
1.81 1005.56 4054.00 7452.05 2.19 0.27 0.80 0.19 0.99 -0.06 1.37 -0.16 -0.73 1605.382
2.11 1005.52 4054.00 7452.05 2.25 0.35 0.67 0.19 0.98 -0.06 1.37 -0.16 -0.73 1605.882
2.06 1005.53 4054.00 7452.05 2.22 0.22 0.63 0.19 1.00 -0.06 1.37 -0.16 -0.72 1606.383
2.06 1005.53 4054.00 7452.05 2.37 0.33 0.31 0.19 0.99 -0.05 1.37 -0.16 -0.72 1606.884
2.34 1005.49 4054.00 7452.05 2.33 0.17 0.57 0.19 0.99 -0.06 1.37 -0.16 -0.72 1607.386
2.21 1005.51 4054.00 7452.05 2.05 0.25 0.37 0.19 0.98 -0.06 1.37 -0.16 -0.73 1607.886
2.20 1005.51 4054.00 7452.05 2.28 0.21 0.64 0.19 0.99 -0.06 1.37 -0.16 -0.73 1608.387
1.75 1005.56 4054.00 7452.05 2.24 0.39 0.45 0.18 0.98 -0.06 1.37 -0.16 -0.72 1608.888
1.76 1005.56 4054.00 7452.05 2.25 0.18 0.55 0.20 0.98 -0.05 1.38 -0.16 -0.72 1609.39
2.25 1005.51 4054.00 7452.05 2.32 0.40 0.48 0.20 0.98 -0.05 1.37 -0.16 -0.72 1609.89
2.12 1005.52 4054.00 7452.05 2.21 0.12 0.47 0.19 0.99 -0.06 1.37 -0.16 -0.72 1610.391
1.75 1005.57 4054.00 7452.05 2.27 0.41 0.72 0.18 0.98 -0.06 1.37 -0.17 -0.73 1610.892
2.45 1005.48 4054.00 7452.05 2.45 0.42 0.45 0.19 0.99 -0.05 1.37 -0.16 -0.72 1611.394
1.84 1005.55 4054.00 7452.05 2.11 0.45 0.62 0.19 0.99 -0.06 1.37 -0.16 -0.72 1611.894
2.07 1005.53 4054.00 7452.05 1.93 0.44 0.49 0.19 0.99 -0.06 1.37 -0.16 -0.73 1612.395
1.61 1005.58 4054.00 7452.05 2.40 0.25 0.54 0.20 0.99 -0.05 1.37 -0.16 -0.73 1612.896
2.04 1005.53 4054.00 7452.05 2.27 0.75 0.74 0.20 1.00 -0.06 1.37 -0.16 -0.73 1613.398
2.68 1005.45 4054.00 7452.05 2.40 0.15 0.44 0.20 0.98 -0.06 1.37 -0.16 -0.72 1613.898
2.40 1005.49 4054.00 7452.05 2.09 0.39 0.60 0.19 0.99 -0.06 1.37 -0.16 -0.73 1614.399
2.43 1005.48 4054.00 7452.05 2.51 0.52 0.59 0.18 0.99 -0.06 1.36 -0.16 -0.73 1614.9
2.15 1005.52 4054.00 7452.05 2.32 0.31 0.40 0.19 0.98 -0.05 1.37 -0.16 -0.73 1615.401
2.65 1005.46 4054.00 7452.05 2.42 0.48 0.48 0.20 0.97 -0.07 1.37 -0.16 -0.72 1615.902
1.79 1005.56 4054.00 7452.05 2.24 0.24 0.48 0.19 0.99 -0.05 1.37 -0.17 -0.73 1616.403
2.49 1005.48 4054.00 7452.05 2.37 0.31 0.46 0.20 0.98 -0.07 1.37 -0.16 -0.73 1616.904
2.76 1005.44 4054.00 7452.05 2.38 0.17 0.42 0.19 0.98 -0.06 1.36 -0.16 -0.73 1617.405
1.76 1005.56 4054.00 7452.05 2.14 0.36 0.68 0.19 1.00 -0.06 1.36 -0.16 -0.73 1617.906
1.98 1005.54 4054.00 7452.05 2.33 0.37 0.59 0.19 0.99 -0.06 1.37 -0.16 -0.73 1618.407
1.93 1005.54 4054.00 7452.05 2.60 0.19 0.60 0.19 0.99 -0.06 1.36 -0.16 -0.72 1618.908
2.52 1005.47 4054.00 7452.05 2.34 0.47 0.50 0.19 0.99 -0.06 1.37 -0.16 -0.72 1619.409
1.66 1005.57 4054.00 7452.05 2.45 0.40 0.45 0.18 0.98 -0.06 1.37 -0.16 -0.73 1619.91
2.38 1005.49 4054.00 7452.05 2.35 0.31 0.35 0.19 0.99 -0.05 1.37 -0.16 -0.73 1620.411
2.21 1005.51 4054.00 7452.05 2.44 0.33 0.33 0.19 0.98 -0.06 1.38 -0.17 -0.72 1620.913
1.91 1005.55 4054.00 7452.05 2.42 0.18 0.75 0.19 0.99 -0.06 1.37 -0.16 -0.72 1621.414
2.02 1005.53 4054.00 7452.05 2.35 0.27 0.50 0.20 0.99 -0.07 1.37 -0.16 -0.72 1621.915
2.18 1005.51 4054.00 7452.05 2.39 0.19 0.52 0.19 0.98 -0.06 1.37 -0.16 -0.72 1622.416
2.71 1005.45 4054.00 7452.05 2.36 0.36 0.49 0.20 0.99 -0.06 1.37 -0.16 -0.72 1622.918
2.22 1005.51 4054.00 7452.05 2.10 0.31 0.60 0.19 0.99 -0.06 1.37 -0.15 -0.73 1623.418
2.02 1005.53 4054.00 7452.05 2.03 0.41 0.52 0.20 0.99 -0.05 1.37 -0.16 -0.73 1623.919
2.18 1005.51 4054.00 7452.05 2.12 0.21 0.49 0.19 0.98 -0.05 1.37 -0.16 -0.72 1624.42
1.32 1005.62 4054.00 7452.05 2.63 0.28 0.52 0.19 0.98 -0.06 1.37 -0.16 -0.71 1624.922
2.08 1005.52 4054.00 7452.05 2.63 0.23 0.67 0.19 1.00 -0.06 1.36 -0.16 -0.73 1625.422
2.02 1005.53 4054.00 7452.05 2.53 0.11 0.52 0.19 0.99 -0.06 1.36 -0.16 -0.72 1625.923
1.96 1005.54 4054.00 7452.05 2.14 0.45 0.43 0.19 0.99 -0.06 1.36 -0.16 -0.72 1626.424
2.05 1005.53 4054.00 7452.05 2.36 0.44 0.67 0.19 0.98 -0.06 1.37 -0.16 -0.72 1626.926
1.69 1005.57 4054.00 7452.05 2.14 0.33 0.60 0.19 0.98 -0.06 1.37 -0.16 -0.73 1627.426
2.30 1005.50 4054.00 7452.05 2.35 0.36 0.45 0.19 0.99 -0.05 1.37 -0.16 -0.72 1627.927
1.34 1005.61 4054.00 7452.05 2.34 0.26 0.72 0.19 0.99 -0.06 1.37 -0.16 -0.72 1628.428
2.39 1005.49 4054.00 7452.05 2.12 0.55 0.62 0.19 0.98 -0.06 1.37 -0.16 -0.72 1628.93
2.24 1005.51 4054.00 7452.05 2.27 0.33 0.57 0.19 0.98 -0.06 1.37 -0.16 -0.72 1629.43
1.62 1005.58 4054.00 7452.05 2.48 0.37 0.65 0.19 0.99 -0.06 1.36 -0.16 -0.73 1629.931
1.75 1005.56 4054.00 7452.05 2.35 0.25 0.61 0.19 0.98 -0.06 1.37 -0.16 -0.73 1630.432
2.08 1005.53 4054.00 7452.05 1.97 0.52 0.68 0.19 0.99 -0.05 1.37 -0.16 -0.73 1630.934
2.24 1005.51 4054.00 7452.05 0.16 0.23 0.71 0.19 0.99 -0.06 1.37 -0.16 -0.72 1631.434
1.91 1005.55 4054.00 7452.05 2.44 0.31 0.87 0.19 0.98 -0.06 1.37 -0.16 -0.72 1631.935
2.19 1005.51 4054.00 7452.05 2.28 0.25 0.72 0.19 0.98 -0.05 1.36 -0.16 -0.72 1632.436
2.00 1005.53 4054.00 7452.05 2.21 0.32 0.60 0.19 0.98 -0.06 1.37 -0.16 -0.72 1632.937
2.55 1005.47 4054.00 7452.05 2.43 0.37 0.63 0.20 0.99 -0.06 1.36 -0.16 -0.73 1633.438
1.94 1005.54 4054.00 7452.05 2.53 0.46 0.81 0.19 0.98 -0.06 1.37 -0.16 -0.73 1633.939
2.03 1005.53 4054.00 7452.05 2.36 0.45 0.49 0.19 0.99 -0.06 1.37 -0.16 -0.72 1634.44
1.86 1005.55 4054.00 7452.05 2.16 0.28 0.58 0.20 0.99 -0.06 1.36 -0.16 -0.73 1634.941
2.13 1005.52 4054.00 7452.05 2.21 0.20 0.63 0.19 0.99 -0.06 1.37 -0.16 -0.72 1635.442
1.92 1005.54 4054.00 7452.05 2.53 0.23 0.41 0.19 0.99 -0.06 1.37 -0.16 -0.72 1635.943
1.74 1005.57 4054.00 7452.05 2.19 0.42 0.67 0.19 0.99 -0.05 1.37 -0.16 -0.72 1636.444
2.20 1005.51 4054.00 7452.05 2.28 0.30 0.61 0.20 0.99 -0.06 1.37 -0.16 -0.73 1636.945
2.08 1005.53 4054.00 7452.05 2.22 0.34 0.31 0.19 0.98 -0.05 1.37 -0.16 -0.72 1637.446
1.98 1005.54 4054.00 7452.05 2.44 0.33 0.66 0.19 0.98 -0.06 1.37 -0.16 -0.73 1637.947
2.00 1005.53 4054.00 7452.05 2.38 0.22 0.38 0.19 0.98 -0.07 1.37 -0.16 -0.72 1638.449
2.08 1005.53 4054.00 7452.05 2.37 0.56 0.60 0.19 0.99 -0.05 1.36 -0.16 -0.72 1638.95
2.11 1005.52 4054.00 7452.05 2.23 0.67 0.60 0.19 0.99 -0.06 1.37 -0.17 -0.73 1639.451
2.22 1005.51 4054.00 7452.05 2.56 0.25 0.44 0.19 0.99 -0.06 1.36 -0.16 -0.73 1639.952
1.80 1005.56 4054.00 7452.05 2.45 0.35 0.60 0.21 0.98 -0.06 1.37 -0.16 -0.73 1640.454
1.55 1005.59 4054.00 7452.05 2.24 0.31 0.65 0.19 0.99 -0.06 1.37 -0.16 -0.73 1640.954
2.25 1005.51 4054.00 7452.05 2.03 0.46 0.51 0.19 0.99 -0.06 1.37 -0.16 -0.72 1641.455
1.80 1005.56 4054.00 7452.05 2.32 0.44 0.45 0.19 0.97 -0.06 1.36 -0.16 -0.72 1641.956
2.02 1005.53 4054.00 7452.05 2.05 0.45 0.52 0.20 0.98 -0.07 1.36 -0.16 -0.72 1642.458
1.88 1005.55 4054.00 7452.05 2.42 0.22 0.58 0.19 0.98 -0.06 1.36 -0.16 -0.72 1642.958
1.95 1005.54 4054.00 7452.05 2.23 0.31 0.74 0.19 0.98 -0.05 1.37 -0.16 -0.73 1643.459
1.75 1005.56 4054.00 7452.05 2.28 0.15 0.56 0.19 0.99 -0.06 1.37 -0.16 -0.73 1643.96
2.02 1005.53 4054.00 7452.05 2.28 0.39 0.74 0.20 0.99 -0.06 1.37 -0.16 -0.72 1644.462
2.05 1005.53 4054.00 7452.05 2.14 0.25 0.59 0.19 0.99 -0.05 1.37 -0.16 -0.72 1644.962
2.42 1005.48 4054.00 7452.05 2.56 0.36 0.63 0.18 0.99 -0.05 1.37 -0.16 -0.72 1645.463
2.33 1005.50 4054.00 7452.05 2.50 0.35 0.31 0.19 0.99 -0.06 1.36 -0.16 -0.73 1645.964
1.86 1005.55 4054.00 7452.05 2.28 0.45 0.42 0.20 0.99 -0.06 1.37 -0.16 -0.73 1646.466
1.91 1005.55 4054.00 7452.05 2.32 0.14 0.78 0.19 0.99 -0.06 1.37 -0.16 -0.73 1646.966
1.87 1005.55 4054.00 7452.05 2.51 0.65 0.49 0.18 0.99 -0.05 1.36 -0.15 -0.73 1647.467
2.09 1005.52 4054.00 7452.05 2.49 0.25 0.55 0.19 0.98 -0.06 1.37 -0.16 -0.73 1647.968
2.29 1005.50 4054.00 7452.05 2.15 0.61 0.52 0.19 0.98 -0.06 1.36 -0.16 -0.73 1648.47
1.70 1005.57 4054.00 7452.05 2.42 0.16 0.52 0.19 0.98 -0.06 1.37 -0.16 -0.72 1648.97
2.22 1005.51 4054.00 7452.05 2.38 0.20 0.52 0.20 0.99 -0.06 1.37 -0.16 -0.72 1649.471
2.14 1005.52 4054.00 7452.05 2.18 0.58 0.49 0.18 0.99 -0.05 1.37 -0.16 -0.72 1649.972
2.03 1005.53 4054.01 7452.05 2.35 0.33 0.45 0.19 0.98 -0.06 1.37 -0.16 -0.72 1650.473
2.39 1005.49 4054.01 7452.05 2.28 0.46 0.48 0.20 0.98 -0.06 1.37 -0.15 -0.73 1650.974
1.81 1005.56 4054.01 7452.05 2.34 0.27 0.53 0.19 0.99 -0.06 1.37 -0.16 -0.73 1651.475
2.08 1005.53 4054.01 7452.05 2.29 0.16 0.60 0.18 0.98 -0.05 1.36 -0.15 -0.73 1651.976
1.50 1005.59 4054.01 7452.05 2.43 0.11 0.56 0.19 0.99 -0.05 1.37 -0.16 -0.72 1652.477
2.01 1005.53 4054.01 7452.05 2.27 0.19 0.58 0.19 1.00 -0.06 1.37 -0.16 -0.72 1652.978
1.58 1005.59 4054.01 7452.05 2.49 0.17 0.45 0.19 0.99 -0.06 1.37 -0.15 -0.73 1653.479
2.06 1005.53 4054.01 7452.05 2.28 0.31 0.29 0.19 0.99 -0.05 1.37 -0.15 -0.73 1653.98
1.86 1005.55 4054.01 7452.05 2.23 0.32 0.40 0.19 0.98 -0.05 1.37 -0.15 -0.73 1654.481
1.58 1005.59 4054.01 7452.05 2.46 0.32 0.62 0.20 0.99 -0.06 1.37 -0.15 -0.73 1654.982
1.92 1005.54 4054.01 7452.05 2.18 0.27 0.56 0.19 0.99 -0.06 1.36 -0.15 -0.73 1655.483
2.35 1005.49 4054.01 7452.05 2.61 0.28 0.60 0.19 0.99 -0.06 1.37 -0.16 -0.73 1655.985
2.70 1005.45 4054.01 7452.05 2.34 0.28 0.59 0.19 0.99 -0.06 1.37 -0.16 -0.72 1656.486
2.21 1005.51 4054.01 7452.05 2.14 0.39 0.55 0.19 0.99 -0.06 1.36 -0.16 -0.73 1656.987
2.62 1005.46 4054.01 7452.05 2.40 0.37 0.59 0.19 0.99 -0.06 1.36 -0.16 -0.72 1657.488
2.29 1005.50 4054.01 7452.05 2.27 0.31 0.45 0.19 0.99 -0.06 1.36 -0.16 -0.73 1657.99
2.60 1005.46 4054.01 7452.05 2.47 0.41 0.66 0.19 0.99 -0.06 1.37 -0.15 -0.73 1658.49
2.43 1005.48 4054.01 7452.05 2.21 0.23 0.45 0.19 0.99 -0.06 1.36 -0.16 -0.73 1658.991
2.15 1005.52 4054.01 7452.05 2.35 0.25 0.45 0.19 0.98 -0.06 1.36 -0.16 -0.72 1659.492
1.90 1005.55 4054.01 7452.05 2.25 0.33 0.63 0.19 0.98 -0.06 1.36 -0.16 -0.72 1659.994
2.31 1005.50 4054.01 7452.05 2.42 0.31 0.60 0.19 0.99 -0.06 1.37 -0.16 -0.72 1660.494
2.45 1005.48 4054.01 7452.05 2.34 0.18 0.65 0.19 0.99 -0.06 1.36 -0.16 -0.73 1660.995
1.98 1005.54 4054.01 7452.05 2.33 0.31 0.60 0.19 0.99 -0.06 1.37 -0.16 -0.73 1661.496
1.95 1005.54 4054.01 7452.05 2.40 0.21 0.51 0.19 1.00 -0.05 1.36 -0.16 -0.72 1661.998
2.07 1005.53 4054.01 7452.05 2.20 0.07 0.46 0.19 0.99 -0.06 1.36 -0.16 -0.73 1662.498
2.10 1005.52 4054.01 7452.05 2.35 0.45 0.59 0.19 0.99 -0.05 1.36 -0.16 -0.72 1662.999
1.61 1005.58 4054.01 7452.05 2.49 0.62 0.40 0.19 0.98 -0.05 1.36 -0.16 -0.72 1663.5
2.12 1005.52 4054.01 7452.05 2.51 0.08 0.55 0.19 0.98 -0.05 1.36 -0.16 -0.72 1664.002
2.53 1005.47 4054.01 7452.05 2.33 0.12 0.33 0.19 0.99 -0.06 1.36 -0.16 -0.74 1664.502
2.31 1005.50 4054.01 7452.05 2.45 1.65 0.27 0.19 0.98 -0.06 1.37 -0.16 -0.73 1665.003
2.20 1005.51 4054.01 7452.05 -30.84 -79.40 -5.10 -0.40 0.27 -0.14 1.19 -0.21 -0.79 1665.51
2.12 1005.52 4054.01 7452.05 4.80 -6.43 4.78 -0.50 0.88 -0.4 1.05 -0.30 -0.77 1666.014
2.62 1005.46 4054.01 7452.05 25.04 15.77 13.86 -0.56 0.80 -0.22 1.01 -0.28 -0.77 1666.51
2.57 1005.47 4054.01 7452.05 -35.32 -22.04 -40.88 -0.54 0.44 -0.34 0.98 -0.26 -0.77 1667.014
2.68 1005.45 4054.01 7452.05 -16.22 21.23 5.03 -0.52 0.75 -0.54 1.03 -0.36 -0.74 1667.512
2.66 1005.46 4054.01 7452.05 -1.12 8.17 5.30 -0.56 0.94 -0.51 1.07 -0.40 -0.71 1668.012
3.22 1005.39 4054.01 7452.05 17.21 8.82 16.25 -0.57 0.71 -0.53 1.04 -0.39 -0.72 1668.513
3.12 1005.40 4054.01 7452.05 20.34 -0.81 5.01 -0.62 0.60 -0.47 0.94 -0.31 -0.74 1669.014
2.99 1005.42 4054.01 7452.05 -7.26 1.50 -12.75 -0.49 0.46 -0.38 0.94 -0.31 -0.74 1669.516
2.72 1005.45 4054.01 7452.05 -12.65 -2.70 -8.15 -0.59 0.74 -0.44 1.00 -0.35 -0.73 1670.03
2.57 1005.47 4054.01 7452.05 -0.48 12.83 8.72 -0.57 0.70 -0.52 1.02 -0.37 -0.73 1670.517
2.91 1005.43 4054.01 7452.05 -4.97 4.43 -0.32 -0.51 0.72 -0.5 1.05 -0.37 -0.72 1671.019
3.24 1005.39 4054.01 7452.05 4.98 0.81 1.29 -0.50 0.73 -0.51 1.06 -0.37 -0.73 1671.517
2.69 1005.45 4054.01 7452.05 2.19 2.58 0.39 -0.50 0.74 -0.5 1.06 -0.37 -0.73 1672.026
2.94 1005.42 4054.01 7452.05 -0.91 -5.68 -4.67 -0.52 0.73 -0.52 1.06 -0.38 -0.73 1672.522
3.25 1005.39 4054.01 7452.05 4.68 7.39 3.20 -0.45 0.72 -0.56 1.08 -0.39 -0.71 1673.044
2.94 1005.42 4054.01 7452.05 7.13 -1.71 -8.36 -0.45 0.72 -0.55 1.09 -0.38 -0.73 1673.524
3.35 1005.37 4054.01 7452.05 4.22 1.50 0.43 -0.44 0.74 -0.53 1.09 -0.37 -0.73 1674.049
2.96 1005.42 4054.01 7452.05 3.21 0.52 0.38 -0.44 0.73 -0.53 1.09 -0.36 -0.74 1674.524
2.93 1005.42 4054.01 7452.05 1.18 1.82 1.47 -0.43 0.73 -0.53 1.10 -0.36 -0.74 1675.026
3.13 1005.40 4054.01 7452.05 1.81 0.52 1.68 -0.44 0.74 -0.54 1.09 -0.36 -0.74 1675.527
3.00 1005.42 4054.01 7452.05 1.73 -0.74 0.03 -0.45 0.74 -0.53 1.10 -0.36 -0.73 1676.052
2.86 1005.43 4054.01 7452.05 -0.03 -2.63 -0.97 -0.43 0.72 -0.54 1.09 -0.37 -0.73 1676.531
3.35 1005.37 4054.01 7452.05 0.79 0.36 0.60 -0.45 0.74 -0.55 1.10 -0.37 -0.72 1677.029
3.04 1005.41 4054.01 7452.05 2.52 0.25 0.03 -0.43 0.74 -0.54 1.09 -0.36 -0.74 1677.531
3.08 1005.41 4054.01 7452.05 3.11 0.39 2.30 -0.44 0.72 -0.54 1.09 -0.36 -0.74 1678.031
3.41 1005.37 4054.01 7452.05 1.71 -0.14 -1.17 -0.44 0.74 -0.54 1.10 -0.36 -0.73 1678.534
2.91 1005.43 4054.01 7452.05 0.94 0.28 1.32 -0.43 0.72 -0.55 1.10 -0.38 -0.72 1679.033
3.35 1005.37 4054.01 7452.05 2.71 0.95 0.64 -0.45 0.73 -0.55 1.10 -0.37 -0.73 1679.535
3.32 1005.38 4054.01 7452.05 1.78 0.98 1.13 -0.44 0.72 -0.55 1.10 -0.37 -0.73 1680.035
3.32 1005.38 4054.01 7452.05 4.94 1.17 -0.23 -0.46 0.73 -0.55 1.09 -0.37 -0.73 1680.537
3.69 1005.33 4054.01 7452.05 2.20 -0.15 0.63 -0.46 0.73 -0.54 1.09 -0.37 -0.73 1681.064
3.28 1005.38 4054.01 7452.05 0.91 0.88 0.11 -0.45 0.74 -0.55 1.09 -0.37 -0.73 1681.539
2.69 1005.45 4054.01 7452.05 2.28 0.05 -0.51 -0.45 0.73 -0.56 1.09 -0.37 -0.72 1682.04
3.39 1005.37 4054.01 7452.05 4.32 -0.20 -0.18 -0.46 0.72 -0.54 1.10 -0.37 -0.73 1682.542
3.38 1005.37 4054.01 7452.05 2.72 2.68 2.04 -0.44 0.72 -0.55 1.09 -0.37 -0.74 1683.041
3.25 1005.39 4054.01 7452.05 0.91 1.56 1.58 -0.42 0.72 -0.55 1.09 -0.37 -0.74 1683.543
3.22 1005.39 4054.01 7452.05 1.97 -0.11 -0.22 -0.44 0.72 -0.56 1.10 -0.37 -0.73 1684.089
3.22 1005.39 4054.01 7452.05 1.48 0.15 1.36 -0.42 0.72 -0.55 1.10 -0.38 -0.73 1684.544
3.07 1005.41 4054.01 7452.05 -2.21 0.82 -0.78 -0.41 0.71 -0.56 1.11 -0.38 -0.73 1685.047
2.86 1005.43 4054.01 7452.05 -21.15 71.03 -22.37 -0.30 0.52 -0.72 1.12 -0.46 -0.67 1685.552
3.25 1005.39 4054.01 7452.05 -16.13 43.08 -12.73 -0.11 0.55 -0.97 1.29 -0.52 -0.56 1686.052
2.48 1005.48 4054.01 7452.05 -0.60 39.40 18.20 0.03 0.33 -1.0 1.32 -0.56 -0.45 1686.55
2.78 1005.44 4054.01 7452.05 -14.91 -16.17 -10.35 0.03 0.22 -0.99 1.32 -0.57 -0.38 1687.054
2.97 1005.42 4054.01 7452.05 24.68 2.30 1.12 0.08 0.18 -0.94 1.35 -0.55 -0.39 1687.55
2.46 1005.48 4054.01 7452.05 4.31 3.49 7.02 0.07 0.15 -0.98 1.33 -0.55 -0.38 1688.116
2.85 1005.43 4054.01 7452.05 3.12 28.00 7.37 0.06 0.16 -1.0 1.32 -0.57 -0.34 1688.552
2.57 1005.47 4054.01 7452.05 2.57 1.60 1.65 0.04 0.15 -0.98 1.30 -0.57 -0.32 1689.079
2.40 1005.49 4054.01 7452.05 1.85 2.67 1.01 0.04 0.16 -0.98 1.30 -0.57 -0.33 1689.553
2.66 1005.46 4054.01 7452.05 2.64 5.12 1.26 0.04 0.16 -0.98 1.29 -0.57 -0.32 1690.054
2.66 1005.46 4054.01 7452.05 2.71 0.24 1.09 0.05 0.16 -0.98 1.30 -0.57 -0.32 1690.555
2.66 1005.46 4054.01 7452.05 2.98 -1.19 0.45 0.04 0.17 -0.99 1.30 -0.58 -0.33 1691.132
2.26 1005.50 4054.01 7452.05 1.89 -0.73 0.67 0.04 0.17 -0.98 1.30 -0.57 -0.33 1691.559
2.78 1005.44 4054.01 7452.05 2.30 -0.74 0.25 0.04 0.19 -0.99 1.30 -0.57 -0.33 1692.114
2.54 1005.47 4054.01 7452.05 2.76 0.55 -0.05 0.05 0.17 -0.98 1.30 -0.57 -0.33 1692.561
2.89 1005.43 4054.01 7452.05 0.23 0.10 0.14 0.05 0.19 -0.98 1.30 -0.57 -0.33 1693.139
2.82 1005.44 4054.01 7452.05 2.23 0.08 0.19 0.05 0.17 -0.98 1.31 -0.57 -0.33 1693.562
2.32 1005.50 4054.01 7452.05 2.09 -0.61 0.45 0.06 0.16 -0.98 1.31 -0.57 -0.34 1694.142
3.04 1005.41 4054.01 7452.05 2.10 -0.80 0.23 0.05 0.17 -0.98 1.31 -0.57 -0.34 1694.565
2.74 1005.45 4054.01 7452.05 2.92 -0.03 0.17 0.06 0.18 -0.98 1.31 -0.57 -0.34 1695.13
2.51 1005.47 4054.01 7452.05 2.49 1.20 0.53 0.05 0.18 -0.98 1.31 -0.57 -0.34 1695.566
2.99 1005.42 4054.01 7452.05 2.58 0.51 0.28 0.05 0.17 -0.98 1.30 -0.57 -0.34 1696.132
2.89 1005.43 4054.01 7452.05 2.28 -0.77 -1.13 0.04 0.17 -0.99 1.30 -0.57 -0.33 1696.57
2.29 1005.50 4054.01 7452.05 3.00 1.31 -0.95 0.03 0.17 -0.97 1.29 -0.57 -0.32 1697.149
2.79 1005.44 4054.01 7452.05 2.80 3.80 0.53 0.06 0.16 -0.95 1.30 -0.57 -0.33 1697.57
3.33 1005.38 4054.01 7452.05 4.03 18.33 7.40 0.04 0.21 -0.97 1.28 -0.58 -0.33 1698.141
