alt barom GPS_La GPS_Lo Gx Gy Gz Ax Ay Az Mx My Mz t
-21.49 981.82 0 0 2.63 0.23 0.30 -0.04 -0.02 1.01 0.84 0.36 -0.56 0.5
-20.60 981.72 0 0 3.16 0.60 0.14 -0.05 -0.02 1.01 0.84 0.36 -0.56 1.0
-20.74 981.73 0 0 3.17 0.22 0.19 -0.04 -0.02 1.01 0.84 0.37 -0.56 1.5
-20.54 981.71 0 0 3.02 0.50 0.11 -0.05 -0.02 1.01 0.84 0.36 -0.56 2.0
-20.68 981.72 0 0 2.81 0.20 0.30 -0.05 -0.02 1.01 0.84 0.36 -0.55 2.5
-20.51 981.71 0 0 2.81 0.28 0.23 -0.04 -0.02 1.01 0.84 0.37 -0.56 3.0
-20.65 981.72 0 0 2.77 0.35 0.21 -0.04 -0.02 1.01 0.84 0.36 -0.55 3.5
-20.97 981.76 0 0 2.65 0.38 0.25 -0.05 -0.03 1.01 0.84 0.37 -0.56 4.0
-20.97 981.76 0 0 2.70 0.38 0.40 -0.04 -0.02 1.01 0.84 0.36 -0.55 4.5
-20.72 981.73 0 0 3.13 0.59 0.06 -0.05 -0.02 1.01 0.84 0.37 -0.55 5.0
-20.88 981.75 0 0 3.06 0.14 0.17 -0.06 -0.03 1.01 0.84 0.36 -0.55 5.5
-20.42 981.70 0 0 2.61 0.07 0.45 -0.05 -0.02 1.01 0.84 0.37 -0.56 6.0
-20.78 981.74 0 0 2.81 0.19 0.08 -0.04 -0.02 1.01 0.84 0.36 -0.56 6.5
-20.17 981.67 0 0 2.87 0.62 0.17 -0.05 -0.02 1.01 0.84 0.37 -0.55 7.0
-20.48 981.70 0 0 2.89 0.36 0.20 -0.05 -0.03 1.01 0.84 0.37 -0.56 7.5
-20.30 981.68 0 0 3.15 0.05 0.21 -0.05 -0.03 1.01 0.84 0.37 -0.56 8.0
-20.76 981.73 0 0 2.90 0.17 0.31 -0.05 -0.03 1.01 0.84 0.37 -0.56 8.5
-20.73 981.73 0 0 2.98 0.39 0.11 -0.04 -0.02 1.01 0.84 0.37 -0.56 9.0
-20.38 981.69 0 0 2.83 0.41 0.15 -0.05 -0.03 1.01 0.84 0.36 -0.55 9.5
-20.89 981.75 0 0 2.82 0.35 0.23 -0.05 -0.02 1.01 0.84 0.37 -0.56 10.0
-20.43 981.70 0 0 2.67 -0.26 0.34 -0.05 -0.03 1.01 0.84 0.36 -0.56 10.5
-20.38 981.69 0 0 3.02 0.57 0.19 -0.05 -0.02 1.01 0.84 0.37 -0.56 11.0
-20.55 981.71 0 0 2.84 0.26 0.19 -0.05 -0.03 1.01 0.84 0.36 -0.56 11.5
-20.29 981.68 0 0 2.92 0.11 0.22 -0.05 -0.02 1.01 0.84 0.36 -0.56 12.0
-20.45 981.70 0 0 2.91 0.38 0.34 -0.04 -0.02 1.01 0.84 0.37 -0.55 12.5
-20.26 981.68 0 0 2.84 0.45 0.17 -0.05 -0.02 1.01 0.84 0.36 -0.55 13.0
-20.36 981.69 0 0 2.67 0.04 0.31 -0.06 -0.02 1.01 0.84 0.37 -0.56 13.5
-20.69 981.73 0 0 2.93 0.35 0.52 -0.05 -0.03 1.01 0.84 0.37 -0.55 14.0
-20.72 981.73 0 0 2.95 0.45 0.38 -0.04 -0.03 1.01 0.84 0.37 -0.56 14.5
-20.22 981.67 0 0 2.93 0.65 0.13 -0.06 -0.03 1.01 0.84 0.36 -0.56 15.0
-20.55 981.71 0 0 2.82 0.09 0.31 -0.05 -0.02 1.01 0.84 0.37 -0.56 15.5
-20.22 981.67 0 0 2.84 0.22 0.42 -0.05 -0.04 1.01 0.84 0.37 -0.55 16.0
-20.20 981.67 0 0 3.02 0.03 0.20 -0.04 -0.02 1.01 0.84 0.36 -0.56 16.5
-20.81 981.74 0 0 2.95 0.34 0.13 -0.05 -0.03 1.01 0.84 0.37 -0.55 17.0
-20.63 981.72 0 0 3.16 0.78 0.39 -0.05 -0.02 1.01 0.84 0.37 -0.55 17.5
-20.66 981.72 0 0 3.10 0.30 0.13 -0.05 -0.02 1.01 0.84 0.37 -0.55 18.0
-20.80 981.74 0 0 2.95 0.67 0.31 -0.06 -0.02 1.01 0.84 0.36 -0.55 18.5
-20.31 981.68 0 0 2.57 -0.05 0.50 -0.05 -0.02 1.01 0.84 0.37 -0.55 19.0
-20.21 981.67 0 0 3.13 0.50 0.27 -0.04 -0.02 1.01 0.84 0.37 -0.56 19.5
-20.40 981.69 0 0 3.10 0.57 -0.15 -0.04 -0.03 1.01 0.83 0.37 -0.56 20.0
-20.79 981.74 0 0 2.81 0.44 0.36 -0.06 -0.03 1.01 0.84 0.37 -0.55 20.5
-21.07 981.77 0 0 2.72 -0.14 0.51 -0.04 -0.03 1.01 0.84 0.38 -0.55 21.0
-20.70 981.73 0 0 2.63 0.20 0.12 -0.04 -0.02 1.01 0.84 0.37 -0.55 21.5
-20.74 981.73 0 0 3.23 1.17 -0.06 -0.06 -0.03 1.01 0.83 0.37 -0.56 22.0
-20.60 981.72 0 0 2.70 0.03 0.29 -0.05 -0.03 1.01 0.84 0.37 -0.55 22.5
-20.15 981.66 0 0 3.12 0.50 0.26 -0.05 -0.03 1.01 0.84 0.37 -0.55 23.0
-20.35 981.69 0 0 2.78 0.57 0.14 -0.04 -0.03 1.01 0.84 0.37 -0.56 23.5
-20.69 981.73 0 0 2.87 0.03 0.40 -0.06 -0.02 1.01 0.84 0.37 -0.55 24.0
-20.96 981.76 0 0 2.69 0.67 0.30 -0.05 -0.02 1.01 0.84 0.37 -0.55 24.5
-20.60 981.72 0 0 2.75 -0.02 0.25 -0.04 -0.02 1.01 0.84 0.38 -0.56 25.0
-20.48 981.70 0 0 2.87 0.45 0.31 -0.05 -0.02 1.01 0.84 0.37 -0.55 25.5
-20.47 981.70 0 0 2.87 0.81 0.11 -0.04 -0.03 1.01 0.84 0.37 -0.55 26.0
-20.10 981.66 0 0 2.90 -0.04 0.43 -0.05 -0.03 1.01 0.83 0.37 -0.55 26.5
-20.48 981.70 0 0 3.14 0.77 0.11 -0.04 -0.02 1.01 0.84 0.37 -0.55 27.0
-20.23 981.67 0 0 2.73 0.38 0.26 -0.04 -0.02 1.01 0.84 0.37 -0.55 27.5
-20.13 981.66 0 0 2.79 0.31 0.38 -0.05 -0.03 1.01 0.84 0.37 -0.56 28.0
-20.52 981.71 0 0 2.98 0.25 0.63 -0.04 -0.01 1.01 0.84 0.37 -0.55 28.5
-20.16 981.66 0 0 2.98 0.67 0.03 -0.05 -0.02 1.01 0.84 0.37 -0.56 29.0
-20.56 981.71 0 0 2.78 0.42 0.18 -0.05 -0.02 1.01 0.83 0.37 -0.55 29.5
-20.29 981.68 0 0 2.91 0.12 0.34 -0.05 -0.02 1.01 0.84 0.37 -0.55 30.0
-19.50 981.59 0 0 3.04 0.67 0.24 -0.04 -0.02 1.01 0.84 0.37 -0.55 30.5
-19.62 981.60 0 0 2.82 0.57 0.41 -0.04 -0.02 1.01 0.84 0.36 -0.55 31.0
-20.14 981.66 0 0 2.72 -0.11 0.40 -0.04 -0.02 1.01 0.84 0.37 -0.55 31.5
-20.18 981.67 0 0 2.91 -0.60 0.36 -0.05 -0.02 1.0 0.84 0.37 -0.55 32.0
-20.59 981.72 0 0 3.10 1.47 0.38 -0.03 -0.03 1.01 0.83 0.37 -0.55 32.5
-20.21 981.67 0 0 2.98 0.14 0.16 0.00 -0.03 1.04 0.84 0.37 -0.55 33.0
-7.83 980.23 0 0 -21.30 -138.57 11.22 -0.49 -0.03 2.0 0.87 0.37 -0.58 33.5
64.39 971.87 0 0 -15.74 -286.72 64.20 -0.14 -0.00 2.0 0.80 0.38 -0.41 34.0
138.80 963.32 0 0 -33.31 257.54 23.12 -0.39 0.14 2.0 0.95 0.38 -0.31 34.5
285.18 946.66 0 0 -6.11 286.68 18.49 -0.69 0.23 2.0 1.08 0.38 -0.51 35.0
458.43 927.26 0 0 4.72 286.68 10.62 -0.26 1.75 2.0 0.94 0.37 -0.59 35.5
729.39 897.56 0 0 -10.32 286.68 -2.75 -0.63 0.74 2.0 0.82 0.38 -0.49 36.0
863.88 883.10 0 0 62.40 286.68 -1.29 -0.21 0.14 -0.33 1.11 0.38 -0.44 36.5
1069.35 861.39 0 0 48.34 286.68 13.85 0.08 0.79 -2.0 0.88 0.37 -0.56 37.0
1103.01 857.87 0 0 6.18 286.68 15.86 0.39 0.15 -2.0 0.85 0.38 -0.54 37.5
1233.60 844.34 0 0 5.72 286.68 14.41 0.21 -0.15 -2.0 0.81 0.37 -0.47 38.0
1356.33 831.78 0 0 30.03 286.68 0.42 -0.59 0.41 -2.0 0.89 0.38 -0.33 38.5
1476.33 819.65 0 0 24.21 286.68 7.96 -0.43 0.27 -1.81 1.06 0.37 -0.33 39.0
1589.20 808.36 0 0 26.04 286.68 -9.91 -0.06 -0.80 -1.7 1.12 0.37 -0.46 39.5
1698.96 797.51 0 0 -13.40 286.68 24.08 -0.16 -0.09 -1.42 1.02 0.37 -0.59 40.0
1798.76 787.75 0 0 18.26 286.68 -9.11 -0.00 -0.24 -1.68 0.82 0.37 -0.52 40.5
1898.18 778.12 0 0 22.98 286.68 -8.04 0.22 -0.79 -1.24 0.92 0.37 -0.29 41.0
1991.97 769.13 0 0 18.90 286.68 -11.10 0.15 -0.26 -1.07 1.14 0.36 -0.46 41.5
2079.94 760.77 0 0 24.95 286.68 -10.59 0.19 0.09 -0.56 0.85 0.37 -0.57 42.0
2165.22 752.73 0 0 25.25 286.68 11.63 -0.15 0.26 -1.0 1.01 0.36 -0.29 42.5
2247.67 745.03 0 0 -0.29 286.68 15.63 -0.11 -0.08 -0.94 0.96 0.36 -0.62 43.0
2321.96 738.14 0 0 15.35 286.68 -9.55 0.19 0.45 -0.12 0.92 0.36 -0.27 43.5
2394.46 731.47 0 0 9.63 286.68 10.32 -0.10 0.26 -0.16 0.99 0.36 -0.61 44.0
2461.92 725.31 0 0 13.97 286.68 -4.89 0.20 -0.22 -0.17 0.99 0.36 -0.27 44.5
2528.38 719.28 0 0 9.83 276.54 6.26 0.08 -0.05 -1.21 0.83 0.36 -0.59 45.0
2590.84 713.65 0 0 14.95 262.17 1.43 0.00 0.16 -0.1 1.14 0.36 -0.41 45.5
2649.84 708.37 0 0 7.28 260.34 -1.65 0.68 0.21 0.04 0.79 0.36 -0.35 46.0
2705.67 703.39 0 0 7.38 244.08 3.16 -0.17 -0.04 -0.66 0.97 0.35 -0.64 46.5
2759.44 698.63 0 0 9.93 228.24 2.50 -0.05 -0.08 -0.21 1.11 0.35 -0.33 47.0
2808.68 694.29 0 0 7.98 191.63 0.31 0.13 -0.08 -0.19 0.77 0.35 -0.34 47.5
2855.19 690.22 0 0 5.44 174.47 3.00 -0.06 0.06 -0.24 0.86 0.35 -0.63 48.0
2899.79 686.33 0 0 7.74 162.44 3.61 -0.07 -0.01 -0.2 1.16 0.34 -0.54 48.5
2941.33 682.72 0 0 9.79 157.51 -0.21 -0.03 -0.05 -0.22 1.08 0.35 -0.26 49.0
2980.13 679.36 0 0 5.92 145.57 -1.16 0.02 0.02 -0.2 0.79 0.34 -0.30 49.5
3016.37 676.24 0 0 3.86 137.53 -0.86 0.06 0.01 -0.09 0.74 0.33 -0.57 50.0
3049.19 673.42 0 0 4.52 125.11 5.07 -0.01 0.06 -0.12 1.00 0.32 -0.68 50.5
3079.69 670.81 0 0 9.07 119.75 5.33 0.01 -0.01 -0.11 1.21 0.32 -0.51 51.0
3108.15 668.38 0 0 9.39 118.64 1.19 -0.05 0.01 -0.12 1.15 0.31 -0.26 51.5
3133.43 666.23 0 0 9.17 106.86 -4.12 -0.04 0.04 -0.11 0.88 0.30 -0.18 52.0
3156.68 664.26 0 0 3.14 104.12 -3.47 -0.02 0.02 -0.1 0.67 0.29 -0.36 52.5
3177.71 662.47 0 0 -1.23 105.31 -1.15 -0.03 0.03 -0.06 0.71 0.27 -0.62 53.0
3196.16 660.92 0 0 -1.04 97.88 3.88 -0.02 -0.01 -0.06 0.98 0.24 -0.75 53.5
3211.53 659.62 0 0 2.55 85.48 8.78 -0.02 -0.00 -0.05 1.25 0.22 -0.66 54.0
3225.01 658.48 0 0 9.52 71.55 7.91 -0.03 0.02 -0.06 1.36 0.20 -0.43 54.5
3236.05 657.55 0 0 13.53 59.51 4.63 -0.01 0.01 -0.04 1.30 0.17 -0.22 55.0
3245.00 656.80 0 0 15.76 49.92 1.11 -0.01 0.01 -0.04 1.16 0.13 -0.08 55.5
3251.62 656.25 0 0 14.98 49.97 -4.65 -0.00 -0.01 -0.02 0.97 0.08 -0.03 56.0
3255.42 655.93 0 0 10.89 55.85 -8.81 -0.02 0.00 -0.03 0.76 0.04 -0.07 56.5
3258.38 655.68 0 0 6.47 55.97 -13.44 -0.04 -0.01 0.04 0.59 -0.02 -0.21 57.0
3266.33 655.01 0 0 84.63 -52.33 223.71 1.99 -2.00 -2.0 0.52 -0.08 -0.42 57.5
3247.47 656.59 0 0 51.63 110.53 -129.40 -0.71 2.00 0.26 0.94 -0.20 -0.90 58.0
3227.11 658.31 0 0 -143.76 -95.49 -45.47 1.04 -2.00 -1.73 1.05 -0.30 -0.89 58.5
3265.32 655.10 0 0 -64.09 -100.11 4.03 -0.71 1.22 -0.69 0.58 -0.34 -0.37 59.0
3245.02 656.80 0 0 -47.99 12.70 49.76 -0.08 0.15 -0.09 0.74 -0.51 -0.28 59.5
3234.07 657.72 0 0 -64.72 199.16 -67.70 0.27 0.36 -1.14 0.65 -0.43 -0.57 60.0
3217.07 659.15 0 0 -31.75 197.65 -53.45 0.40 0.27 -0.59 1.02 -0.41 -0.85 60.5
3227.04 658.31 0 0 40.73 138.71 -16.96 -0.39 0.98 -0.34 1.14 -0.42 -0.83 61.0
3205.77 660.10 0 0 93.53 150.96 -32.11 -0.15 0.34 -0.4 1.36 -0.55 -0.58 61.5
3193.11 661.17 0 0 -48.76 -1.09 11.65 0.82 -0.15 -0.4 1.38 -0.23 -0.13 62.0
3169.79 663.15 0 0 70.73 -173.75 120.29 0.06 2.00 -1.82 1.45 -0.41 -0.60 62.5
3158.07 664.14 0 0 -75.70 52.93 102.01 -0.55 1.66 -2.0 1.13 -0.62 -0.26 63.0
3176.31 662.59 0 0 -286.72 -286.72 -70.00 0.71 1.96 1.17 1.29 -0.60 -0.32 63.5
3131.49 666.39 0 0 286.68 -286.72 260.86 -1.27 2.00 1.84 1.37 -0.55 -0.42 64.0
3159.27 664.04 0 0 79.11 -286.72 -99.01 0.16 1.13 -0.4 0.73 0.27 -0.63 64.5
3142.21 665.48 0 0 285.33 -286.72 -228.87 -0.68 0.36 -0.56 1.38 -0.53 -0.58 65.0
3094.66 669.53 0 0 256.06 -286.72 286.68 -0.23 -0.49 -0.8 1.23 -0.63 -0.57 65.5
3078.29 670.93 0 0 105.77 -210.94 95.36 -2.00 -2.00 -1.84 1.30 -0.62 -0.40 66.0
3095.30 669.48 0 0 45.99 87.18 -156.15 -0.05 2.00 0.99 0.58 0.07 -0.60 66.5
3072.96 671.38 0 0 92.01 286.68 183.99 1.10 -2.00 0.11 0.97 -0.64 -0.57 67.0
3037.56 674.42 0 0 90.81 -199.72 286.39 -0.17 2.00 -0.13 1.42 -0.40 -0.25 67.5
3043.93 673.87 0 0 136.58 12.60 -121.43 0.86 1.52 -0.23 0.86 -0.42 -0.80 68.0
3019.29 675.99 0 0 194.55 280.04 -137.21 -2.00 -1.42 1.09 1.07 -0.58 -0.72 68.5
3001.95 677.48 0 0 -94.40 30.20 229.52 -2.00 2.00 -0.35 0.75 -0.55 -0.41 69.0
2977.20 679.61 0 0 -137.82 245.87 93.88 0.12 -2.00 -0.85 1.03 -0.65 -0.58 69.5
2946.56 682.26 0 0 -155.65 -249.98 202.76 2.00 1.33 -0.85 1.28 -0.35 -0.82 70.0
2984.93 678.95 0 0 6.37 34.90 11.43 -1.12 -1.68 -0.97 0.53 -0.14 -0.40 70.5
2939.12 682.91 0 0 -65.91 286.68 -131.86 1.76 -1.12 -0.61 1.35 -0.52 -0.62 71.0
2927.19 683.94 0 0 -92.53 286.68 -110.44 -0.17 1.94 -1.62 0.65 -0.45 -0.37 71.5
2914.38 685.06 0 0 -286.72 286.68 -116.77 -0.98 -1.57 -0.94 0.65 -0.46 -0.39 72.0
2906.03 685.78 0 0 95.06 286.68 -73.14 1.60 -0.29 -0.09 1.49 -0.35 -0.53 72.5
2871.82 688.76 0 0 77.92 286.68 29.13 1.09 -1.34 -0.16 1.42 -0.51 -0.39 73.0
2824.37 692.92 0 0 73.44 -120.21 160.80 1.35 2.00 0.13 1.47 -0.16 -0.64 73.5
2859.97 689.80 0 0 203.81 -114.06 -22.04 -0.14 0.54 -1.65 1.09 -0.52 -0.79 74.0
2827.22 692.67 0 0 -58.57 120.33 -196.11 0.36 0.31 -0.76 1.02 -0.66 -0.57 74.5
2851.22 690.56 0 0 -213.33 -6.97 153.74 -1.45 -0.47 -0.21 1.11 -0.51 -0.79 75.0
2801.06 694.96 0 0 273.33 -55.35 158.59 0.51 1.52 0.04 1.30 -0.60 -0.59 75.5
2784.40 696.43 0 0 78.61 130.78 -115.70 -0.39 -0.99 -2.0 1.06 -0.68 -0.40 76.0
2782.11 696.63 0 0 -155.20 -286.72 83.70 -1.11 1.74 -0.9 0.98 -0.67 -0.44 76.5
2796.01 695.41 0 0 -118.71 286.68 195.11 0.34 0.68 -0.12 1.09 -0.46 -0.83 77.0
2759.23 698.65 0 0 25.67 286.68 286.62 0.02 -0.36 -2.0 0.80 -0.48 -0.17 77.5
2707.94 703.19 0 0 122.98 286.68 28.41 0.49 0.63 -0.58 1.40 -0.53 -0.49 78.0
2716.13 702.47 0 0 149.97 268.49 94.20 -0.79 2.00 0.9 0.82 -0.53 -0.21 78.5
2693.90 704.44 0 0 286.68 269.36 73.27 -0.61 0.48 -0.91 1.11 -0.62 -0.28 79.0
2678.76 705.79 0 0 12.84 -36.10 -120.23 0.32 0.01 0.38 1.45 0.04 -0.47 79.5
2688.28 704.94 0 0 -286.72 -267.04 -54.70 0.72 -1.00 -1.03 1.21 -0.37 -0.07 80.0
2653.14 708.07 0 0 -71.10 -27.29 286.68 1.63 -1.67 -1.83 1.26 -0.64 -0.46 80.5
2646.73 708.64 0 0 68.83 -178.26 44.45 0.51 0.83 -0.18 1.21 -0.66 -0.48 81.0
2643.17 708.96 0 0 281.97 -120.08 151.87 -0.19 1.24 -1.44 1.23 -0.64 -0.35 81.5
2635.63 709.64 0 0 -12.06 282.07 -29.44 -0.56 -1.00 -0.35 0.85 -0.26 -0.03 82.0
2633.82 709.80 0 0 262.28 165.03 106.57 -0.53 1.44 -0.74 0.75 -0.41 -0.75 82.5
2626.42 710.46 0 0 66.43 286.68 19.10 -0.40 0.52 -0.16 0.93 -0.55 -0.74 83.0
2617.10 711.29 0 0 -97.77 286.68 74.06 -0.63 0.29 -1.7 1.11 -0.51 -0.78 83.5
2612.80 711.68 0 0 195.09 286.68 57.11 0.12 0.17 -1.35 1.00 -0.61 -0.67 84.0
2605.48 712.34 0 0 -44.21 286.68 4.48 -0.10 -0.14 -1.47 0.98 -0.67 -0.40 84.5
2601.04 712.74 0 0 -49.62 261.98 51.56 0.37 -0.48 -0.86 1.15 -0.64 -0.29 85.0
2596.47 713.15 0 0 -49.49 187.09 -10.83 0.07 -0.10 -0.33 1.19 -0.66 -0.39 85.5
2590.53 713.68 0 0 -281.79 -68.66 197.93 0.05 0.69 -0.81 1.32 -0.59 -0.34 86.0
2583.58 714.30 0 0 286.68 -58.01 -71.39 -0.04 -0.17 -1.44 1.23 -0.64 -0.37 86.5
2579.46 714.67 0 0 -14.05 -4.11 113.89 0.00 -0.23 -0.34 1.06 -0.67 -0.35 87.0
2575.81 715.00 0 0 120.42 -34.18 -179.90 -0.16 0.49 -1.43 1.08 -0.57 -0.73 87.5
2568.70 715.64 0 0 38.96 -286.72 75.07 -0.10 -0.00 -0.59 0.66 -0.47 -0.38 88.0
2563.37 716.12 0 0 2.87 -286.72 -15.26 -0.15 -0.01 -0.5 1.26 -0.63 -0.34 88.5
2558.34 716.58 0 0 -191.63 -286.72 -84.84 0.18 0.45 -1.06 1.02 -0.65 -0.59 89.0
2553.08 717.05 0 0 54.53 -286.72 -24.05 -0.13 -0.49 -0.33 0.94 -0.66 -0.48 89.5
2548.76 717.44 0 0 -41.43 -286.72 -88.64 -1.84 -2.00 -2.0 1.01 -0.52 -0.78 90.0
2542.23 718.03 0 0 -13.15 -286.72 124.87 -0.01 -0.16 -0.98 1.13 -0.62 -0.22 90.5
2538.49 718.37 0 0 -23.63 -286.72 -34.77 0.05 -0.14 -0.38 1.02 -0.68 -0.49 91.0
2528.31 719.29 0 0 -211.70 -286.72 -282.39 0.46 -0.75 -2.0 1.22 -0.66 -0.39 91.5
2526.19 719.48 0 0 -95.23 -286.72 -197.53 -1.10 -1.97 -2.0 0.94 -0.55 -0.16 92.0
2524.40 719.64 0 0 44.84 -286.72 -76.89 0.33 0.42 -1.29 0.94 -0.56 -0.72 92.5
2516.90 720.32 0 0 -111.00 -286.72 0.38 -0.28 -0.05 -0.8 1.09 -0.68 -0.45 93.0
2510.15 720.93 0 0 60.34 -286.72 -132.75 0.40 2.00 -0.31 1.27 -0.63 -0.44 93.5
2507.46 721.18 0 0 -117.66 -286.72 -6.68 -0.26 -0.48 -0.51 0.92 -0.34 -0.02 94.0
2502.83 721.60 0 0 137.14 -286.72 20.41 0.27 0.00 -0.55 0.79 -0.57 -0.56 94.5
2494.32 722.37 0 0 -258.62 -286.72 -3.35 -0.31 -0.58 -1.23 1.03 -0.68 -0.42 95.0
2485.71 723.15 0 0 162.58 -240.22 -23.87 0.42 -0.45 -1.26 1.26 -0.55 -0.21 95.5
2482.71 723.42 0 0 90.48 -120.93 97.65 0.42 -0.23 -0.88 1.38 -0.43 -0.21 96.0
2481.78 723.51 0 0 41.35 -13.38 -8.84 0.10 -0.31 -0.33 1.31 -0.43 -0.15 96.5
2472.96 724.31 0 0 -147.27 238.62 -71.45 -0.53 0.85 -1.95 0.94 -0.60 -0.23 97.0
2466.06 724.93 0 0 35.16 108.88 184.70 0.19 -0.06 -0.72 1.00 -0.60 -0.20 97.5
2460.54 725.44 0 0 -47.69 191.84 -85.32 -0.13 -0.05 -0.3 0.73 -0.50 -0.61 98.0
2453.07 726.12 0 0 -238.49 -121.69 117.91 0.41 0.35 -0.54 1.34 -0.45 -0.73 98.5
2448.99 726.49 0 0 48.62 -223.05 185.73 0.00 -0.01 -0.45 1.02 -0.67 -0.51 99.0
2440.72 727.24 0 0 -163.61 -286.72 12.77 0.29 0.21 -0.38 1.32 -0.61 -0.47 99.5
2438.20 727.47 0 0 -63.87 -286.72 -97.89 -0.07 0.03 -0.77 0.83 -0.51 -0.71 100.0
2434.58 727.80 0 0 129.46 -286.72 -22.80 0.35 -0.95 -1.07 1.07 -0.30 -0.01 100.5
2425.46 728.64 0 0 138.36 -272.83 149.24 0.02 0.16 -0.81 1.05 -0.68 -0.44 101.0
2419.93 729.14 0 0 75.26 -196.21 176.39 -0.15 0.48 -0.54 1.06 -0.61 -0.21 101.5
2414.88 729.60 0 0 -186.83 -219.49 158.48 -0.19 -0.16 -1.1 1.12 -0.53 -0.12 102.0
2410.56 730.00 0 0 -6.36 -134.52 62.69 -0.22 0.02 -0.45 1.06 -0.68 -0.46 102.5
2406.71 730.35 0 0 -286.72 -286.72 286.68 0.82 1.84 -1.97 1.11 -0.68 -0.46 103.0
2400.30 730.94 0 0 -15.09 -175.22 -107.35 -0.05 -0.19 -0.55 1.25 -0.50 -0.15 103.5
2394.47 731.47 0 0 -126.75 -233.00 -63.95 0.04 -0.38 -0.59 1.38 -0.55 -0.55 104.0
2388.23 732.04 0 0 94.89 -286.72 -94.30 -0.02 -0.33 -1.52 0.97 -0.67 -0.37 104.5
2387.08 732.15 0 0 61.78 -185.75 -172.85 -0.07 0.14 -0.46 1.16 -0.59 -0.70 105.0
2378.26 732.96 0 0 -72.72 -286.72 -54.58 0.08 -0.87 -0.68 0.87 -0.63 -0.36 105.5
2371.06 733.62 0 0 193.02 -286.72 227.82 -0.46 -0.16 -1.15 1.15 -0.68 -0.41 106.0
2364.72 734.20 0 0 -167.14 -286.72 82.59 0.19 0.17 -0.37 1.25 -0.60 -0.64 106.5
2359.04 734.73 0 0 -7.48 -286.72 -77.73 -0.21 0.07 -0.19 1.04 -0.65 -0.61 107.0
2353.59 735.23 0 0 -20.54 -286.72 -73.75 -0.28 0.07 -0.47 1.03 -0.56 -0.74 107.5
2347.07 735.83 0 0 32.11 -286.72 114.41 0.21 0.45 -0.26 1.32 -0.61 -0.39 108.0
2340.77 736.41 0 0 -213.29 -286.72 -98.10 0.50 0.08 -2.0 0.92 -0.66 -0.46 108.5
2336.97 736.76 0 0 73.11 -286.72 27.67 0.20 0.14 -0.51 1.24 -0.47 -0.79 109.0
2333.41 737.09 0 0 -146.49 -286.72 45.02 0.28 -0.67 -1.2 1.33 -0.40 -0.15 109.5
2326.34 737.74 0 0 53.85 -286.72 55.09 -0.33 0.11 -1.15 0.84 -0.63 -0.44 110.0
2320.08 738.32 0 0 -8.28 -260.73 -40.17 -0.07 0.05 -0.47 0.84 -0.63 -0.44 110.5
2314.54 738.83 0 0 -15.28 -280.18 247.07 0.30 -0.56 -1.47 1.17 -0.56 -0.17 111.0
2310.05 739.24 0 0 -51.94 -193.23 54.60 0.03 0.07 -0.52 1.24 -0.66 -0.40 111.5
2307.16 739.51 0 0 -66.13 -209.73 89.58 -0.16 -0.11 -0.88 1.17 -0.67 -0.51 112.0
2300.94 740.09 0 0 -286.72 -205.49 39.83 0.46 -0.04 -1.43 1.17 -0.58 -0.20 112.5
2294.92 740.64 0 0 115.48 -237.60 -58.28 -0.45 0.05 -1.61 1.30 -0.58 -0.63 113.0
2289.56 741.14 0 0 -157.37 -286.72 92.91 -0.03 -0.46 -0.57 1.13 -0.66 -0.56 113.5
2286.38 741.43 0 0 158.55 -282.38 -117.65 -0.49 -0.04 -0.57 0.95 -0.65 -0.56 114.0
2281.61 741.88 0 0 -41.97 -200.82 -26.01 0.37 -1.43 -0.41 0.82 -0.60 -0.44 114.5
2274.70 742.52 0 0 203.66 -58.14 -211.02 0.06 -0.18 -1.05 0.79 -0.59 -0.43 115.0
2271.13 742.85 0 0 138.48 27.44 -39.58 0.08 -0.14 -1.05 0.95 -0.66 -0.53 115.5
2263.51 743.56 0 0 -286.72 58.00 95.91 -1.09 1.36 -2.0 1.12 -0.68 -0.40 116.0
2258.34 744.04 0 0 137.52 210.44 -112.04 0.31 0.09 -0.67 1.07 -0.60 -0.70 116.5
2254.67 744.38 0 0 -254.39 271.58 24.62 0.02 0.04 -1.52 1.34 -0.60 -0.49 117.0
2247.43 745.05 0 0 4.22 281.63 -39.99 0.29 0.03 -1.37 1.21 -0.67 -0.40 117.5
2244.83 745.29 0 0 38.55 286.10 22.43 -0.28 0.15 -0.35 0.66 -0.44 -0.59 118.0
2239.35 745.80 0 0 -109.76 245.75 98.33 0.76 -0.23 -2.0 1.46 -0.41 -0.32 118.5
2232.02 746.49 0 0 -5.19 204.19 -122.90 0.06 -0.05 -0.67 1.18 -0.68 -0.43 119.0
2228.94 746.77 0 0 -39.46 51.57 72.40 0.34 0.14 -0.32 1.30 -0.59 -0.29 119.5
2221.20 747.49 0 0 83.22 -190.78 204.26 0.08 0.10 -1.16 1.19 -0.57 -0.19 120.0
2216.88 747.90 0 0 48.84 -172.39 80.79 -0.15 0.07 -0.72 1.25 -0.63 -0.32 120.5
2212.73 748.29 0 0 4.42 -285.00 205.49 0.04 0.87 -0.97 1.11 -0.67 -0.34 121.0
2206.90 748.83 0 0 -44.47 -286.72 64.67 0.06 -0.10 -0.53 1.24 -0.54 -0.16 121.5
2203.39 749.16 0 0 -14.45 -286.72 -20.86 0.14 0.04 -0.58 1.08 -0.47 -0.82 122.0
2200.39 749.44 0 0 199.04 -245.78 -105.27 -0.16 -0.28 -0.68 0.96 -0.67 -0.44 122.5
2190.52 750.36 0 0 -10.68 -237.34 63.80 0.29 0.11 -0.4 1.35 -0.44 -0.72 123.0
2187.90 750.61 0 0 286.68 -233.05 -66.75 -0.24 -0.22 -2.0 0.69 -0.51 -0.53 123.5
2179.45 751.40 0 0 34.17 -92.36 -38.81 0.03 0.17 -0.47 1.05 -0.69 -0.48 124.0
2173.97 751.91 0 0 11.36 -46.52 -177.21 0.04 0.17 -0.61 1.21 -0.68 -0.49 124.5
2165.96 752.66 0 0 27.88 -129.40 -31.58 0.04 -0.05 -2.0 1.37 -0.59 -0.44 125.0
2162.95 752.94 0 0 -123.09 -286.72 12.48 0.13 -0.06 -0.47 1.35 -0.59 -0.52 125.5
2158.54 753.36 0 0 43.23 -286.72 52.66 -0.12 -0.16 -0.72 0.95 -0.66 -0.38 126.0
2152.25 753.95 0 0 50.92 -75.63 -266.52 -0.04 -0.68 -1.66 0.81 -0.54 -0.64 126.5
2147.98 754.35 0 0 -55.08 4.04 -114.41 0.21 -0.60 -0.76 0.87 -0.54 -0.69 127.0
2141.42 754.97 0 0 -213.24 77.36 -74.63 -1.81 0.58 -2.0 0.88 -0.55 -0.67 127.5
2137.69 755.32 0 0 62.86 85.76 188.98 -0.55 0.16 -0.59 0.60 -0.34 -0.50 128.0
2130.44 756.00 0 0 -110.83 286.68 -135.55 -0.20 -0.02 -0.3 1.36 -0.56 -0.59 128.5
2125.27 756.49 0 0 121.59 286.68 -219.30 -0.05 0.36 -0.83 0.86 -0.56 -0.23 129.0
2119.00 757.08 0 0 -260.18 44.28 245.27 -0.11 0.17 -0.67 0.94 -0.66 -0.42 129.5
2112.85 757.66 0 0 46.42 -106.59 203.26 -0.10 0.31 -1.99 0.87 -0.59 -0.59 130.0
2109.28 757.99 0 0 -111.47 -116.61 16.85 0.02 0.34 -0.82 1.00 -0.54 -0.75 130.5
2100.36 758.84 0 0 117.77 -164.19 80.42 0.23 -0.30 -0.94 1.18 -0.68 -0.39 131.0
2096.46 759.20 0 0 87.68 -83.09 -208.03 0.28 0.21 0.76 1.32 -0.61 -0.56 131.5
2089.12 759.90 0 0 213.60 -115.32 -23.88 -0.32 1.52 -1.31 1.37 -0.58 -0.48 132.0
2084.99 760.29 0 0 -132.98 74.01 -89.52 -0.01 -0.43 -0.6 1.33 -0.60 -0.36 132.5
2078.71 760.88 0 0 -60.14 147.16 -46.63 -0.40 1.13 -1.2 0.97 -0.61 -0.66 133.0
2071.46 761.57 0 0 -58.79 93.05 97.64 2.00 -1.87 -2.0 1.04 -0.61 -0.21 133.5
2066.81 762.01 0 0 -98.29 -14.46 -184.26 -0.02 -0.75 -0.42 0.88 -0.56 -0.18 134.0
2058.72 762.78 0 0 -66.46 -126.15 -21.88 -1.26 0.11 -1.38 1.00 -0.56 -0.15 134.5
2051.76 763.44 0 0 -192.51 15.67 -40.69 -0.40 0.04 -0.68 1.20 -0.67 -0.39 135.0
2046.70 763.92 0 0 72.81 -21.58 102.41 -0.36 1.13 -1.39 1.12 -0.69 -0.47 135.5
2038.83 764.67 0 0 199.32 115.50 -15.24 -0.03 -0.88 -1.78 0.99 -0.57 -0.16 136.0
2034.55 765.07 0 0 -169.32 6.41 140.45 0.32 0.22 -0.49 1.19 -0.68 -0.44 136.5
2026.84 765.80 0 0 -214.32 -148.61 -15.62 0.09 -0.06 -0.24 1.36 -0.59 -0.41 137.0
2021.97 766.27 0 0 -144.92 -286.72 131.38 0.15 -0.34 -0.42 1.09 -0.63 -0.65 137.5
2015.77 766.86 0 0 -238.07 -286.72 75.60 -0.42 -1.29 -0.66 1.21 -0.61 -0.66 138.0
2014.58 766.97 0 0 122.20 -286.72 22.96 -0.77 -0.69 -0.44 1.14 -0.35 -0.87 138.5
2005.09 767.88 0 0 -157.15 -219.99 -256.18 0.09 -0.22 -2.0 1.20 -0.61 -0.23 139.0
1995.65 768.78 0 0 -125.57 -286.72 -268.24 0.25 -0.08 -0.83 1.13 -0.67 -0.56 139.5
1989.82 769.33 0 0 -36.18 -286.72 281.61 -0.38 -0.11 -1.98 1.19 -0.68 -0.45 140.0
1984.02 769.89 0 0 -171.01 -286.72 0.00 -1.20 -0.87 -2.0 0.82 -0.56 -0.24 140.5
1979.81 770.29 0 0 -100.34 137.91 -125.79 0.14 -0.52 -0.6 1.14 -0.48 -0.08 141.0
1972.78 770.96 0 0 -35.31 60.72 181.80 -0.33 0.21 -0.2 0.83 -0.61 -0.50 141.5
1964.61 771.74 0 0 115.92 286.68 -189.61 0.06 -0.62 -0.62 1.10 -0.66 -0.59 142.0
1958.91 772.29 0 0 26.98 124.77 197.37 0.09 0.18 -1.29 1.24 -0.63 -0.27 142.5
1952.95 772.86 0 0 -73.81 190.10 -163.02 0.09 -0.10 -0.87 0.92 -0.65 -0.35 143.0
1945.98 773.53 0 0 -182.39 138.71 58.10 0.25 0.57 -1.16 1.01 -0.64 -0.62 143.5
1940.09 774.09 0 0 -21.47 161.02 -126.07 0.18 -0.25 -0.58 1.22 -0.67 -0.45 144.0
1933.33 774.74 0 0 -93.91 165.24 -69.54 -0.28 1.28 -0.94 1.04 -0.68 -0.53 144.5
1924.67 775.57 0 0 5.28 135.53 -102.92 0.43 0.47 -0.63 1.22 -0.66 -0.36 145.0
1920.18 776.01 0 0 137.74 31.16 51.72 -0.29 -0.08 -0.4 0.89 -0.47 -0.10 145.5
1914.17 776.58 0 0 -286.72 -286.72 46.72 0.43 -1.25 -2.0 1.29 -0.64 -0.52 146.0
1911.25 776.87 0 0 48.48 -286.72 -93.07 0.58 0.27 -0.94 1.19 -0.51 -0.77 146.5
1902.16 777.74 0 0 112.62 -286.72 -57.41 0.01 -0.17 -1.05 1.35 -0.44 -0.75 147.0
1895.58 778.37 0 0 -4.92 -286.72 -79.66 0.01 0.05 -0.37 0.94 -0.66 -0.44 147.5
1889.27 778.98 0 0 -117.20 -286.72 -56.00 0.66 -0.38 -1.86 1.25 -0.64 -0.56 148.0
1881.94 779.69 0 0 -70.82 -286.72 36.62 0.11 -0.09 -0.39 1.35 -0.61 -0.43 148.5
1876.46 780.22 0 0 86.85 -286.72 19.92 0.59 -1.16 -2.0 1.21 -0.65 -0.32 149.0
1871.00 780.75 0 0 58.06 -286.72 -82.02 0.08 -0.21 -1.2 1.11 -0.68 -0.56 149.5
1864.10 781.41 0 0 99.70 -286.72 -99.97 -0.48 -0.59 -1.44 1.23 -0.67 -0.45 150.0
1858.94 781.91 0 0 85.24 -286.72 -7.50 -0.10 0.23 -0.46 0.78 -0.58 -0.48 150.5
1851.55 782.63 0 0 49.74 -265.49 197.76 0.55 -0.66 -0.67 1.28 -0.55 -0.20 151.0
1844.61 783.30 0 0 266.63 -192.29 174.79 -0.03 -0.13 -0.39 0.97 -0.66 -0.53 151.5
1838.94 783.85 0 0 -286.72 -286.72 -108.91 0.50 -0.52 -0.5 1.31 -0.48 -0.16 152.0
1831.25 784.59 0 0 286.68 -286.72 250.73 0.21 0.06 -0.81 1.28 -0.56 -0.22 152.5
1827.76 784.93 0 0 210.28 -286.72 -36.43 -0.33 0.37 -0.82 0.92 -0.65 -0.40 153.0
1817.40 785.94 0 0 -112.73 -245.43 -137.42 0.25 0.62 -0.57 1.35 -0.40 -0.76 153.5
1810.22 786.64 0 0 -248.43 -286.72 -96.47 0.96 0.19 -1.05 1.43 -0.48 -0.31 154.0
1806.47 787.00 0 0 77.15 -286.72 -77.39 -0.47 0.26 -0.52 1.01 -0.64 -0.61 154.5
1797.90 787.84 0 0 -31.07 -286.72 -51.63 0.52 0.31 -0.94 1.25 -0.66 -0.43 155.0
1794.89 788.13 0 0 -46.16 -286.72 -42.27 0.42 0.01 -0.67 1.23 -0.54 -0.73 155.5
1789.51 788.65 0 0 23.57 -286.72 26.94 -0.16 -0.19 -1.4 1.09 -0.64 -0.25 156.0
1785.31 789.06 0 0 58.88 -194.34 -17.90 0.20 -0.09 -0.57 0.99 -0.67 -0.38 156.5
1779.89 789.59 0 0 68.21 -133.17 -16.41 -0.14 -0.12 -0.3 0.95 -0.52 -0.13 157.0
1772.24 790.34 0 0 -72.59 -74.03 96.07 0.11 0.37 -0.9 1.10 -0.50 -0.10 157.5
1766.23 790.92 0 0 65.41 51.10 -82.72 0.05 -0.08 -0.8 1.12 -0.68 -0.38 158.0
1757.48 791.78 0 0 15.18 96.16 -79.06 -0.06 -0.24 -0.8 1.06 -0.63 -0.24 158.5
1752.33 792.28 0 0 -6.40 -55.35 159.39 -0.02 -0.13 -0.56 1.03 -0.53 -0.11 159.0
1746.50 792.85 0 0 -155.37 -121.04 170.67 -0.04 -0.41 -0.65 1.03 -0.60 -0.19 159.5
1744.61 793.04 0 0 91.29 42.28 -98.30 -0.18 0.39 -0.77 1.06 -0.66 -0.61 160.0
1734.53 794.02 0 0 189.76 135.63 -102.64 0.12 0.16 -1.17 1.25 -0.66 -0.49 160.5
1725.25 794.93 0 0 58.19 93.58 81.18 -0.42 -0.10 -1.66 1.10 -0.56 -0.14 161.0
1718.37 795.61 0 0 27.16 -4.88 228.76 0.00 -0.34 -1.36 0.95 -0.64 -0.31 161.5
1715.43 795.90 0 0 4.59 68.00 154.75 -0.29 -0.59 -1.34 0.72 -0.47 -0.26 162.0
1709.67 796.46 0 0 49.91 110.69 55.76 0.09 -0.27 -0.7 0.88 -0.58 -0.66 162.5
1702.21 797.20 0 0 0.84 152.35 127.57 0.37 -0.30 -1.74 1.37 -0.59 -0.44 163.0
1697.61 797.65 0 0 107.58 191.91 39.03 -0.27 -0.01 -0.36 0.97 -0.67 -0.43 163.5
1687.17 798.67 0 0 43.02 286.68 -144.22 0.42 -0.04 -0.71 1.15 -0.68 -0.39 164.0
1685.47 798.84 0 0 -151.58 189.88 -62.72 0.15 -0.22 -0.25 1.18 -0.66 -0.56 164.5
1677.32 799.64 0 0 -26.19 204.98 -85.65 0.92 0.44 -1.06 1.26 -0.59 -0.65 165.0
1674.04 799.97 0 0 31.29 39.48 -243.85 -0.15 0.35 -1.06 1.27 -0.53 -0.75 165.5
1666.79 800.68 0 0 35.86 -110.18 -94.30 -0.12 -0.36 -0.72 0.96 -0.56 -0.72 166.0
1658.86 801.46 0 0 -164.93 -105.39 0.64 0.08 -0.08 -0.65 1.04 -0.64 -0.63 166.5
1652.12 802.13 0 0 -106.56 -11.75 -95.65 0.17 0.24 -0.28 1.02 -0.66 -0.58 167.0
1645.25 802.81 0 0 -119.36 12.11 -67.09 -0.08 0.07 -1.5 0.87 -0.62 -0.35 167.5
1640.95 803.23 0 0 94.39 17.46 34.63 -0.15 -0.11 -0.78 0.77 -0.55 -0.34 168.0
1632.63 804.06 0 0 22.88 85.34 -54.71 -0.50 -0.03 -0.34 0.90 -0.64 -0.51 168.5
1626.67 804.65 0 0 217.65 154.53 -55.69 -0.27 -0.13 -1.34 0.92 -0.65 -0.41 169.0
1621.19 805.19 0 0 32.55 121.97 2.63 -0.30 -0.32 -1.14 0.91 -0.62 -0.58 169.5
1612.70 806.03 0 0 4.91 117.14 20.50 -0.52 0.11 -1.9 1.17 -0.67 -0.56 170.0
1606.44 806.65 0 0 159.27 153.04 30.27 -0.26 -0.49 -1.43 1.18 -0.67 -0.35 170.5
1601.52 807.14 0 0 -61.19 121.54 94.27 -0.20 0.01 -1.07 0.85 -0.52 -0.19 171.0
1595.60 807.73 0 0 68.87 87.70 32.42 0.10 0.66 -1.19 0.92 -0.60 -0.64 171.5
1589.92 808.29 0 0 -63.91 164.94 5.84 0.16 -0.61 -0.92 1.22 -0.67 -0.51 172.0
1581.94 809.09 0 0 -34.34 167.86 31.08 0.07 0.28 -0.13 1.20 -0.68 -0.47 172.5
1574.65 809.81 0 0 31.42 208.79 -12.13 -0.09 0.28 -0.28 1.23 -0.64 -0.27 173.0
1569.15 810.36 0 0 -92.04 195.63 -183.58 -0.73 0.67 -1.68 0.76 -0.56 -0.44 173.5
1562.65 811.01 0 0 99.32 209.34 -80.43 0.07 0.39 -0.81 1.02 -0.59 -0.71 174.0
1556.52 811.62 0 0 9.10 126.36 -286.72 -0.28 0.81 -0.68 1.09 -0.61 -0.70 174.5
1549.87 812.28 0 0 -49.24 -96.76 70.75 -0.30 0.17 -0.59 1.00 -0.67 -0.50 175.0
1544.71 812.80 0 0 -191.15 -57.87 47.24 -0.12 0.53 -0.47 1.11 -0.46 -0.82 175.5
1537.76 813.49 0 0 -18.29 56.03 -245.82 -0.52 -0.29 -1.64 0.77 -0.51 -0.64 176.0
1531.13 814.15 0 0 129.10 -166.31 130.95 -0.25 -0.78 -2.0 0.85 -0.60 -0.32 176.5
1524.64 814.80 0 0 -154.31 67.89 -50.24 0.41 -0.88 -0.79 1.03 -0.69 -0.39 177.0
1516.38 815.63 0 0 -42.71 88.86 -216.93 -0.32 1.54 -0.75 1.03 -0.68 -0.42 177.5
1511.71 816.10 0 0 84.70 -116.91 30.58 -0.19 0.18 -0.53 1.14 -0.66 -0.30 178.0
1504.92 816.78 0 0 -46.21 -117.92 44.30 0.18 -0.40 -0.56 1.35 -0.59 -0.31 178.5
1497.88 817.48 0 0 17.91 -125.40 12.18 0.28 0.68 -1.11 1.38 -0.52 -0.65 179.0
1492.38 818.03 0 0 74.75 -153.75 63.23 0.14 0.18 -0.39 1.05 -0.67 -0.59 179.5
1487.50 818.52 0 0 44.11 -163.15 69.32 0.05 1.05 -0.95 0.73 -0.52 -0.51 180.0
1481.65 819.11 0 0 -3.26 -59.18 10.56 -0.13 -0.31 -0.18 0.69 -0.49 -0.40 180.5
1472.47 820.03 0 0 54.71 -102.18 176.77 -0.21 0.31 -0.4 0.83 -0.61 -0.42 181.0
1465.64 820.72 0 0 68.39 -107.71 106.86 0.20 0.14 0.49 1.31 -0.63 -0.35 181.5
1459.81 821.31 0 0 -35.18 36.83 -90.08 -0.19 -0.05 -1.16 1.06 -0.59 -0.17 182.0
1453.71 821.92 0 0 -6.99 45.53 4.37 -0.45 -0.02 -0.41 0.82 -0.54 -0.24 182.5
1446.11 822.69 0 0 -71.97 -115.22 133.70 1.20 0.79 -0.6 1.21 -0.67 -0.36 183.0
1443.55 822.95 0 0 66.98 -138.20 -55.15 -0.04 0.42 -0.64 1.34 -0.60 -0.57 183.5
1434.01 823.91 0 0 6.81 -205.21 135.33 -0.22 0.44 -0.66 1.21 -0.67 -0.55 184.0
1428.60 824.45 0 0 -100.93 -172.87 -104.33 0.16 -0.06 -0.27 1.13 -0.62 -0.68 184.5
1422.50 825.07 0 0 -81.51 -286.72 85.84 0.45 -0.83 -0.32 1.28 -0.62 -0.30 185.0
1418.63 825.46 0 0 171.05 -286.72 110.39 -0.07 -0.82 -0.43 0.74 -0.36 -0.13 185.5
1411.32 826.20 0 0 186.78 -286.72 29.38 0.18 -1.08 -0.67 1.32 -0.63 -0.52 186.0
1401.58 827.19 0 0 -49.87 -187.85 -159.63 0.79 0.50 -1.02 1.19 -0.66 -0.59 186.5
1398.38 827.51 0 0 -47.75 -286.72 131.11 -0.44 0.13 -0.43 1.03 -0.68 -0.52 187.0
1393.15 828.04 0 0 55.83 -286.72 -31.53 -1.01 -0.69 -0.73 0.69 -0.28 -0.14 187.5
1384.81 828.89 0 0 -286.72 -134.73 -15.75 0.77 -0.76 -1.94 1.31 -0.64 -0.49 188.0
1378.77 829.50 0 0 160.85 -260.09 51.57 -0.26 -0.00 -0.4 0.86 -0.63 -0.38 188.5
1371.30 830.26 0 0 79.77 -120.28 -178.14 -0.01 0.48 -0.53 1.09 -0.69 -0.39 189.0
1366.54 830.74 0 0 105.66 -66.67 188.05 0.22 -0.56 -0.73 1.32 -0.47 -0.14 189.5
1360.35 831.37 0 0 -110.87 -134.49 91.47 0.31 0.21 -0.89 1.35 -0.62 -0.45 190.0
1354.14 832.00 0 0 217.25 -22.36 37.33 0.41 1.19 -1.47 1.10 -0.68 -0.57 190.5
1346.74 832.75 0 0 -16.28 109.00 86.94 -0.20 -0.10 -1.31 1.16 -0.69 -0.43 191.0
1341.24 833.31 0 0 32.37 119.06 85.36 0.06 -0.25 -0.62 1.23 -0.56 -0.17 191.5
1334.21 834.03 0 0 21.25 156.97 3.89 -0.18 0.45 -2.0 1.03 -0.68 -0.41 192.0
1328.65 834.60 0 0 58.39 232.12 -23.76 -0.06 -0.17 -0.74 0.83 -0.60 -0.44 192.5
1322.01 835.28 0 0 95.64 245.89 -38.91 0.33 0.28 -2.0 1.33 -0.57 -0.66 193.0
1316.90 835.80 0 0 76.99 181.51 -47.50 -0.41 0.16 -0.55 0.93 -0.60 -0.25 193.5
1308.58 836.65 0 0 36.11 142.47 1.67 -0.03 -0.20 -0.48 0.93 -0.64 -0.34 194.0
1301.57 837.36 0 0 225.67 127.76 65.70 0.49 -2.00 -1.04 0.98 -0.67 -0.49 194.5
1295.71 837.96 0 0 -201.18 170.81 93.23 -0.25 -1.13 -0.9 1.05 -0.69 -0.39 195.0
1290.78 838.47 0 0 -22.82 134.72 -158.18 0.07 0.13 -0.31 1.36 -0.59 -0.31 195.5
1282.37 839.33 0 0 -139.20 277.43 -43.31 -0.61 0.70 -0.32 0.95 -0.66 -0.47 196.0
1276.02 839.98 0 0 -127.72 286.68 -150.62 -0.20 -0.66 -0.76 1.17 -0.68 -0.54 196.5
1271.87 840.41 0 0 22.65 286.68 -8.75 0.18 0.29 -2.0 0.77 -0.52 -0.61 197.0
1264.36 841.18 0 0 81.37 286.68 -39.62 -0.01 -0.26 -0.42 1.24 -0.61 -0.23 197.5
1257.47 841.88 0 0 134.17 214.41 65.47 0.06 -0.11 -0.59 1.02 -0.67 -0.41 198.0
1251.67 842.48 0 0 20.82 182.00 -14.18 -0.13 -0.06 -0.43 0.99 -0.67 -0.48 198.5
1247.25 842.93 0 0 33.82 134.01 -6.22 -0.00 0.06 -1.25 1.19 -0.67 -0.57 199.0
1238.56 843.83 0 0 -112.43 109.02 71.91 -0.61 -0.96 -1.2 1.11 -0.67 -0.31 199.5
1230.63 844.64 0 0 -52.56 -109.57 121.88 0.54 0.36 -0.54 1.22 -0.68 -0.50 200.0
1225.74 845.15 0 0 286.68 1.62 136.05 0.73 0.18 -1.53 1.23 -0.48 -0.09 200.5
1219.53 845.79 0 0 -42.44 161.94 131.52 -0.10 -0.36 -1.56 0.81 -0.48 -0.18 201.0
1212.66 846.50 0 0 -158.98 82.12 27.87 0.97 0.06 -1.86 1.01 -0.66 -0.58 201.5
1204.62 847.33 0 0 -29.87 -151.19 -176.43 0.04 0.58 -0.45 1.21 -0.68 -0.54 202.0
1199.72 847.83 0 0 -174.71 -286.72 -60.72 0.18 -0.24 -0.46 1.13 -0.62 -0.69 202.5
1194.78 848.34 0 0 -83.12 -286.72 -157.45 -0.34 -0.92 -1.0 1.10 -0.55 -0.76 203.0
1186.10 849.24 0 0 188.86 -286.72 23.00 -0.21 -0.45 -0.47 1.06 -0.69 -0.45 203.5
1180.34 849.84 0 0 27.12 -269.91 -247.84 -0.23 -0.30 -0.58 1.18 -0.69 -0.47 204.0
1173.06 850.59 0 0 -27.74 -286.72 -138.08 0.15 -0.13 -0.34 0.92 -0.64 -0.53 204.5
1172.49 850.65 0 0 -63.11 -286.72 -190.76 -0.33 0.68 -0.45 0.92 -0.47 -0.78 205.0
1159.06 852.04 0 0 -61.99 -286.72 -211.55 0.36 -0.21 -2.0 1.38 -0.59 -0.54 205.5
1154.80 852.48 0 0 -18.25 -286.72 -193.68 0.09 0.01 -0.54 1.18 -0.66 -0.29 206.0
1148.78 853.11 0 0 -84.73 -286.72 -160.10 0.44 -0.26 -1.48 1.10 -0.64 -0.66 206.5
1142.72 853.74 0 0 -77.45 -286.72 53.03 0.51 -0.81 -0.98 1.35 -0.62 -0.39 207.0
1138.10 854.22 0 0 33.07 -286.72 -59.17 -1.20 -0.08 -1.19 0.77 -0.48 -0.65 207.5
1129.12 855.15 0 0 -68.86 -223.58 -179.25 0.55 0.31 -1.12 1.24 -0.68 -0.41 208.0
1119.55 856.15 0 0 -80.16 -286.72 -27.19 0.63 -0.54 -0.17 1.33 -0.63 -0.53 208.5
1121.98 855.89 0 0 -43.81 -286.72 -89.19 -0.35 -0.67 -0.39 0.68 -0.37 -0.64 209.0
1116.36 856.48 0 0 44.93 -173.80 -215.03 -0.38 0.13 -0.35 1.05 -0.56 -0.75 209.5
1105.49 857.61 0 0 -125.25 -273.34 -99.05 0.00 0.08 -0.64 0.91 -0.61 -0.62 210.0
1098.28 858.36 0 0 -118.02 -286.72 193.89 0.63 -0.07 -1.75 1.33 -0.62 -0.58 210.5
1091.36 859.09 0 0 -1.31 -286.72 -174.51 0.03 0.17 -0.51 1.17 -0.66 -0.60 211.0
1083.81 859.87 0 0 180.53 -286.72 -256.90 -0.08 -0.18 -1.29 0.92 -0.66 -0.48 211.5
1084.88 859.76 0 0 141.84 -286.72 5.28 -0.11 0.40 -0.29 1.20 -0.67 -0.56 212.0
1072.01 861.11 0 0 141.97 -63.85 188.33 0.04 0.05 -0.49 1.37 -0.61 -0.47 212.5
1065.11 861.83 0 0 -99.05 71.74 12.67 0.47 -0.52 -1.74 1.44 -0.52 -0.32 213.0
1059.66 862.40 0 0 -115.04 75.29 131.27 0.59 0.29 -1.42 1.23 -0.64 -0.28 213.5
1052.84 863.12 0 0 -19.18 173.52 -87.01 0.41 -0.22 -0.92 1.04 -0.68 -0.38 214.0
1046.89 863.74 0 0 -93.69 251.93 -102.54 0.03 -0.01 -0.9 1.05 -0.67 -0.55 214.5
1043.38 864.11 0 0 -59.65 255.45 19.07 0.34 0.11 -1.02 1.28 -0.66 -0.46 215.0
1034.30 865.06 0 0 -28.94 230.29 136.11 0.21 -0.79 -1.9 1.20 -0.67 -0.34 215.5
1028.13 865.71 0 0 46.95 235.24 123.87 -0.38 -0.55 -1.63 0.88 -0.59 -0.26 216.0
1023.38 866.21 0 0 80.29 152.16 -52.19 -0.16 -0.02 -0.28 0.89 -0.54 -0.71 216.5
1017.29 866.85 0 0 88.23 115.71 22.23 -0.27 0.01 -0.47 1.20 -0.67 -0.56 217.0
1010.24 867.59 0 0 -29.19 -30.43 192.55 0.11 -0.05 -0.37 1.38 -0.60 -0.39 217.5
1004.05 868.24 0 0 -194.89 79.41 27.40 -0.08 -0.09 -0.5 1.29 -0.63 -0.30 218.0
997.87 868.89 0 0 -168.95 90.15 142.20 -0.02 0.08 -0.59 1.18 -0.66 -0.28 218.5
992.64 869.44 0 0 36.69 -44.29 27.93 0.42 -0.05 -0.45 1.18 -0.67 -0.31 219.0
986.54 870.09 0 0 5.43 -38.28 -20.89 -0.38 0.17 -0.53 0.80 -0.53 -0.23 219.5
984.13 870.34 0 0 -81.47 -102.39 -16.27 -0.36 -0.34 -0.08 0.98 -0.42 -0.04 220.0
971.69 871.65 0 0 -73.95 -67.28 83.64 0.11 0.22 -0.3 1.29 -0.66 -0.44 220.5
965.27 872.33 0 0 190.64 54.27 -27.14 0.03 -0.46 -1.26 1.18 -0.62 -0.22 221.0
959.98 872.89 0 0 -125.07 278.96 -89.26 -0.57 -0.37 -1.55 1.00 -0.68 -0.37 221.5
953.36 873.59 0 0 16.81 286.68 -125.55 1.05 -0.57 -1.36 1.25 -0.64 -0.60 222.0
948.05 874.15 0 0 -153.27 286.68 89.50 -0.32 0.76 -1.4 1.24 -0.63 -0.25 222.5
942.60 874.73 0 0 -46.25 286.68 -14.05 -0.27 -0.27 -0.51 0.92 -0.66 -0.43 223.0
935.13 875.52 0 0 47.65 286.68 -60.13 -0.07 -0.64 -0.59 0.90 -0.55 -0.19 223.5
926.95 876.39 0 0 -5.57 286.63 27.32 0.41 0.11 -0.47 1.43 -0.45 -0.66 224.0
924.78 876.62 0 0 11.48 217.95 -0.80 -0.14 0.44 -0.29 1.16 -0.68 -0.56 224.5
917.32 877.41 0 0 198.77 -196.92 -106.85 -1.03 -0.58 -0.53 0.77 -0.36 -0.10 225.0
909.57 878.24 0 0 -211.60 166.74 -7.72 -0.08 0.10 -0.23 1.27 -0.67 -0.51 225.5
902.96 878.94 0 0 -4.49 -11.04 121.85 0.18 -0.01 -0.23 1.29 -0.62 -0.28 226.0
896.24 879.65 0 0 -4.46 52.39 -100.48 0.15 0.63 -1.29 1.12 -0.67 -0.31 226.5
890.72 880.24 0 0 45.16 1.50 4.32 0.09 -0.20 -0.77 1.09 -0.61 -0.20 227.0
883.28 881.03 0 0 111.37 -5.23 -57.51 0.45 -1.01 -1.64 0.99 -0.63 -0.24 227.5
877.42 881.66 0 0 -240.09 -16.52 54.81 1.99 0.14 -2.0 1.18 -0.68 -0.35 228.0
870.69 882.38 0 0 36.22 -147.75 -87.39 0.18 1.41 -1.62 1.29 -0.66 -0.38 228.5
867.20 882.75 0 0 15.32 -286.72 185.52 0.23 0.30 -0.61 1.23 -0.68 -0.51 229.0
859.53 883.57 0 0 -37.18 -284.41 -55.89 -0.19 0.30 -1.81 1.11 -0.70 -0.40 229.5
859.01 883.62 0 0 -121.49 -241.94 -108.28 -0.12 0.37 -0.7 1.16 -0.54 -0.77 230.0
848.08 884.79 0 0 -32.94 -286.72 38.30 -0.26 -0.32 -1.52 0.94 -0.58 -0.18 230.5
844.12 885.22 0 0 4.19 -286.72 -54.34 0.37 0.59 -0.71 1.29 -0.50 -0.76 231.0
836.37 886.05 0 0 -102.38 -286.72 -8.04 -0.01 0.03 -0.98 1.13 -0.66 -0.26 231.5
831.50 886.57 0 0 55.61 -286.72 -50.77 -0.12 0.95 -0.78 1.09 -0.70 -0.48 232.0
830.84 886.64 0 0 88.29 -286.72 -88.35 -0.28 0.37 -0.28 0.78 -0.51 -0.65 232.5
820.40 887.76 0 0 -286.72 -286.72 72.20 0.58 0.57 -1.63 1.27 -0.67 -0.47 233.0
813.60 888.49 0 0 -127.01 -286.72 -34.29 0.17 -0.46 -0.68 1.23 -0.57 -0.19 233.5
809.20 888.96 0 0 261.11 -280.80 101.58 -0.17 -0.52 -0.59 0.86 -0.62 -0.39 234.0
804.04 889.51 0 0 31.11 -239.74 -9.82 0.47 -0.01 -0.38 1.16 -0.63 -0.22 234.5
793.24 890.67 0 0 47.66 -231.04 183.94 0.35 -0.37 -0.14 1.50 -0.44 -0.40 235.0
789.99 891.02 0 0 201.67 -100.63 36.75 0.26 -0.69 -1.24 1.24 -0.62 -0.65 235.5
782.90 891.78 0 0 3.88 157.95 -133.18 -0.01 -0.51 -1.08 1.24 -0.68 -0.44 236.0
778.45 892.26 0 0 -11.49 142.30 119.29 -0.46 -0.63 -0.83 1.04 -0.68 -0.34 236.5
769.75 893.20 0 0 -20.34 286.68 -134.35 -0.43 0.57 -0.77 0.83 -0.61 -0.47 237.0
763.57 893.87 0 0 179.26 286.68 -4.73 0.72 -0.39 -1.98 1.28 -0.65 -0.35 237.5
758.13 894.45 0 0 87.01 161.57 286.68 -0.26 -0.26 -1.01 0.87 -0.63 -0.48 238.0
750.54 895.27 0 0 -15.36 286.68 111.60 -0.54 1.15 -2.0 1.14 -0.70 -0.49 238.5
747.97 895.55 0 0 -286.72 286.68 31.91 0.21 -0.84 -0.38 0.94 -0.64 -0.59 239.0
744.84 895.89 0 0 -4.35 286.68 -109.68 -0.33 -0.48 -0.5 0.75 -0.38 -0.75 239.5
738.47 896.58 0 0 64.86 286.68 42.57 0.59 2.00 -0.2 1.27 -0.56 -0.17 240.0
727.57 897.75 0 0 95.87 51.30 213.77 0.45 -0.01 -0.72 1.43 -0.56 -0.49 240.5
723.69 898.17 0 0 -106.22 77.49 65.46 0.32 -0.33 -0.35 1.35 -0.42 -0.13 241.0
715.38 899.07 0 0 -3.69 -12.89 15.11 0.11 0.17 -0.22 1.33 -0.62 -0.32 241.5
709.82 899.68 0 0 112.10 -161.34 35.74 0.06 -0.08 -0.83 1.27 -0.58 -0.21 242.0
702.90 900.43 0 0 -89.26 -58.12 -139.13 0.02 -1.23 -2.0 1.25 -0.65 -0.61 242.5
696.94 901.07 0 0 -137.20 -286.72 50.41 -0.11 -0.56 -0.65 0.89 -0.63 -0.35 243.0
694.71 901.32 0 0 58.90 -166.48 -58.74 -0.43 -0.07 -0.32 0.94 -0.67 -0.44 243.5
687.09 902.14 0 0 -286.72 -272.76 7.65 0.27 -1.02 -2.0 1.06 -0.66 -0.60 244.0
680.18 902.89 0 0 -117.55 -286.72 161.60 0.23 -0.45 -2.0 0.77 -0.56 -0.38 244.5
673.75 903.59 0 0 -7.63 -194.98 148.23 -0.25 -0.11 -0.5 1.18 -0.65 -0.26 245.0
668.46 904.17 0 0 -229.38 -286.72 8.93 -0.12 0.14 -0.25 1.21 -0.62 -0.67 245.5
664.93 904.55 0 0 70.30 -286.72 -158.87 -0.60 -0.69 -2.0 0.78 -0.52 -0.22 246.0
659.31 905.16 0 0 137.66 -190.87 -51.53 0.21 -0.07 -0.39 1.36 -0.62 -0.38 246.5
655.90 905.54 0 0 38.66 10.22 -74.51 0.27 -0.33 -0.46 1.13 -0.57 -0.14 247.0
647.97 906.40 0 0 -13.35 53.72 -44.28 -0.59 -0.21 -0.41 0.76 -0.57 -0.47 247.5
638.54 907.43 0 0 -178.12 -286.72 286.68 0.44 -0.33 -1.83 1.23 -0.66 -0.59 248.0
632.07 908.14 0 0 202.34 -286.72 242.33 -0.35 1.09 -1.41 1.15 -0.57 -0.14 248.5
631.88 908.16 0 0 16.81 -207.50 -107.51 -0.11 -0.02 -0.35 1.16 -0.46 -0.83 249.0
622.01 909.23 0 0 -163.19 -286.72 110.05 0.19 -0.09 -1.16 0.94 -0.62 -0.24 249.5
613.82 910.13 0 0 -89.54 -286.72 -161.05 0.48 -0.42 -1.03 1.04 -0.70 -0.45 250.0
607.20 910.86 0 0 -3.73 -286.72 83.74 -0.42 -0.31 -2.0 0.90 -0.58 -0.21 250.5
605.94 910.99 0 0 -221.44 -286.72 205.65 -0.44 -0.66 -0.09 0.72 -0.25 -0.09 251.0
596.81 911.99 0 0 146.06 286.68 61.20 -0.08 -0.22 -0.61 1.09 -0.67 -0.60 251.5
591.87 912.53 0 0 5.63 58.52 -4.26 -0.39 0.25 -0.05 0.57 -0.19 -0.58 252.0
579.42 913.90 0 0 -254.73 -286.72 -25.36 0.67 -1.07 -0.35 1.37 -0.63 -0.45 252.5
582.90 913.52 0 0 -286.72 -286.72 -217.13 0.54 -0.76 -2.0 0.96 -0.61 -0.22 253.0
574.34 914.46 0 0 91.31 -286.72 -157.96 0.03 0.12 -0.21 1.05 -0.49 -0.81 253.5
563.87 915.61 0 0 -90.04 -286.72 -37.62 0.20 0.14 -0.64 1.37 -0.63 -0.46 254.0
559.00 916.14 0 0 -111.09 -286.72 168.23 0.04 -0.84 -1.54 0.83 -0.60 -0.52 254.5
554.76 916.61 0 0 -62.04 -286.72 166.09 -0.19 0.40 -1.17 1.40 -0.60 -0.45 255.0
547.75 917.38 0 0 -213.70 -195.16 -82.25 -0.30 0.17 -1.05 0.95 -0.63 -0.63 255.5
540.85 918.14 0 0 -286.03 -173.30 21.04 0.03 -0.91 -1.76 1.14 -0.70 -0.39 256.0
536.94 918.57 0 0 -35.71 -15.19 3.68 -0.18 0.24 -0.49 1.20 -0.70 -0.49 256.5
528.66 919.49 0 0 176.95 249.91 -133.23 0.04 1.31 -0.77 0.97 -0.67 -0.37 257.0
523.01 920.11 0 0 23.43 133.47 34.60 -0.27 0.22 -0.54 0.83 -0.60 -0.58 257.5
516.60 920.82 0 0 -44.55 204.81 43.96 -0.25 0.03 -0.52 1.07 -0.67 -0.61 258.0
508.83 921.68 0 0 -13.31 286.68 -45.83 -0.09 0.06 -0.87 1.12 -0.67 -0.29 258.5
504.28 922.18 0 0 27.94 285.68 47.11 -0.28 -0.13 -0.05 1.06 -0.55 -0.78 259.0
498.96 922.77 0 0 -68.17 286.68 -31.20 -0.28 -0.14 -0.3 0.98 -0.68 -0.41 259.5
494.02 923.31 0 0 -93.87 286.68 10.23 -0.21 -0.63 -0.78 0.91 -0.65 -0.38 260.0
486.71 924.12 0 0 -16.57 286.68 66.25 -0.34 -0.21 -0.25 0.75 -0.51 -0.63 260.5
482.13 924.63 0 0 -0.48 286.68 1.25 -0.07 0.26 -0.98 0.99 -0.57 -0.73 261.0
476.40 925.27 0 0 1.66 286.68 14.52 0.21 -0.14 -0.6 1.22 -0.68 -0.51 261.5
469.43 926.04 0 0 -121.82 286.68 -6.36 0.17 0.32 -0.28 0.99 -0.68 -0.36 262.0
463.14 926.74 0 0 -4.47 286.68 60.89 0.03 -0.07 -0.66 1.36 -0.63 -0.40 262.5
458.73 927.23 0 0 84.31 144.22 63.23 -0.32 0.20 -0.5 0.78 -0.58 -0.47 263.0
453.61 927.80 0 0 138.25 156.14 -7.13 0.09 0.68 -1.13 1.13 -0.70 -0.45 263.5
446.05 928.64 0 0 -41.68 1.68 93.95 -0.57 0.09 -1.9 1.08 -0.69 -0.56 264.0
440.95 929.20 0 0 13.06 -63.05 54.36 0.02 0.15 -0.55 1.20 -0.61 -0.69 264.5
436.17 929.73 0 0 5.29 -103.30 -27.66 0.13 -0.10 -0.5 1.17 -0.68 -0.59 265.0
430.37 930.38 0 0 36.99 -193.20 16.58 0.06 -0.13 -0.32 1.00 -0.61 -0.20 265.5
422.04 931.31 0 0 105.69 -161.82 -251.04 -0.26 -0.07 -0.64 1.16 -0.61 -0.19 266.0
417.08 931.86 0 0 -268.98 -19.90 -129.72 0.19 0.15 -1.39 1.40 -0.59 -0.45 266.5
412.83 932.34 0 0 40.39 -96.29 153.64 -0.29 0.31 -0.61 1.14 -0.67 -0.61 267.0
406.25 933.07 0 0 -27.70 -151.87 75.81 -0.36 -0.04 -0.86 1.02 -0.64 -0.64 267.5
404.77 933.24 0 0 -106.75 -50.93 -65.15 -0.01 0.83 -0.53 0.92 -0.44 -0.81 268.0
395.57 934.26 0 0 148.04 -92.68 74.06 0.21 -0.63 -1.7 0.97 -0.68 -0.47 268.5
388.91 935.01 0 0 -90.31 93.65 91.98 -0.01 0.01 -0.56 0.91 -0.65 -0.40 269.0
383.49 935.61 0 0 -160.21 -234.76 87.86 0.51 0.09 -0.74 1.25 -0.68 -0.50 269.5
380.05 936.00 0 0 53.87 -286.72 26.84 -0.26 -0.06 -0.65 1.17 -0.68 -0.57 270.0
378.57 936.16 0 0 52.30 -286.72 75.52 -0.19 -0.36 -0.12 0.67 -0.31 -0.17 270.5
370.89 937.02 0 0 18.20 -185.00 -187.05 -0.67 0.42 -0.91 1.14 -0.66 -0.62 271.0
363.53 937.85 0 0 -257.66 -286.72 -244.41 0.10 0.17 -0.5 1.02 -0.69 -0.51 271.5
358.31 938.43 0 0 -7.07 -245.46 -286.72 0.09 -0.06 -1.68 1.01 -0.64 -0.64 272.0
353.98 938.92 0 0 -12.71 -286.72 -115.20 0.13 0.39 -0.29 1.41 -0.40 -0.74 272.5
349.98 939.37 0 0 95.24 -286.72 13.05 -0.41 -0.36 -0.38 0.98 -0.59 -0.18 273.0
340.04 940.49 0 0 -106.90 -286.72 -167.91 0.13 0.19 -0.26 1.14 -0.65 -0.64 273.5
335.22 941.03 0 0 -90.19 -286.72 -42.95 0.28 0.05 -0.99 1.24 -0.56 -0.74 274.0
326.86 941.97 0 0 19.69 -286.72 -211.69 0.16 0.83 -0.85 1.42 -0.50 -0.67 274.5
329.59 941.66 0 0 152.06 -286.72 -2.84 -0.36 0.34 -0.16 1.09 -0.61 -0.72 275.0
318.35 942.92 0 0 -82.20 -286.72 153.27 0.19 0.07 -0.29 1.20 -0.55 -0.76 275.5
313.81 943.44 0 0 -45.88 -286.72 209.69 0.09 -0.33 -0.89 1.03 -0.46 -0.04 276.0
306.95 944.21 0 0 -25.12 -211.77 -37.02 0.02 0.20 -0.44 1.16 -0.62 -0.69 276.5
299.35 945.07 0 0 -62.70 -286.72 72.08 0.16 -0.16 -0.79 1.02 -0.69 -0.51 277.0
293.35 945.74 0 0 22.84 -276.63 -1.19 0.56 -0.06 -1.8 0.96 -0.63 -0.24 277.5
293.28 945.75 0 0 -171.55 -134.93 -174.48 0.25 -0.04 -1.26 1.19 -0.70 -0.42 278.0
279.44 947.31 0 0 -159.75 -203.37 -286.72 0.21 -0.84 -1.54 1.08 -0.67 -0.26 278.5
274.72 947.85 0 0 46.09 -251.34 -134.70 -0.20 0.08 -0.71 1.47 -0.53 -0.44 279.0
269.39 948.45 0 0 189.55 -167.19 6.88 -0.18 -0.56 -0.47 0.84 -0.61 -0.48 279.5
266.39 948.79 0 0 11.59 18.84 -193.93 -0.39 -0.12 -0.61 0.62 -0.39 -0.38 280.0
259.17 949.61 0 0 74.37 -49.49 -81.46 -0.48 -0.08 -0.53 0.75 -0.51 -0.28 280.5
251.38 950.49 0 0 -286.72 -211.70 222.50 0.26 0.05 -1.8 1.12 -0.70 -0.49 281.0
247.15 950.97 0 0 286.68 34.06 105.65 -0.03 0.51 -0.83 1.08 -0.67 -0.29 281.5
239.51 951.83 0 0 117.44 190.19 -117.71 -0.12 -0.12 -0.33 0.85 -0.62 -0.34 282.0
227.60 953.19 0 0 -53.98 -156.29 102.34 0.56 0.00 -0.19 1.47 -0.53 -0.39 282.5
230.83 952.82 0 0 125.30 -113.59 147.66 -0.27 0.58 -0.65 1.25 -0.65 -0.61 283.0
220.97 953.94 0 0 -165.03 268.98 16.71 0.06 -0.20 -0.37 1.09 -0.34 0.01 283.5
214.09 954.72 0 0 17.78 -98.57 -37.94 0.38 0.01 0.0 1.35 -0.63 -0.38 284.0
207.74 955.44 0 0 26.53 -286.72 22.73 0.57 0.15 -0.2 1.55 -0.30 -0.39 284.5
204.90 955.77 0 0 -53.76 -286.72 76.68 -0.06 -0.18 -0.39 0.96 -0.58 -0.16 285.0
198.56 956.49 0 0 9.90 -286.72 -45.44 -0.06 -0.20 -0.76 0.94 -0.66 -0.54 285.5
191.99 957.24 0 0 25.09 -286.72 32.29 -0.14 -0.29 -0.95 1.18 -0.70 -0.44 286.0
186.89 957.82 0 0 17.10 -286.72 -34.92 -0.08 0.23 -1.0 1.07 -0.70 -0.43 286.5
184.80 958.06 0 0 -235.10 -251.65 -57.30 -0.18 0.92 -0.56 1.13 -0.69 -0.34 287.0
173.55 959.34 0 0 -12.72 -285.76 -71.35 0.16 -0.37 -0.62 1.22 -0.61 -0.21 287.5
168.88 959.87 0 0 -3.66 -121.98 -130.70 -0.16 -0.66 -0.91 1.31 -0.64 -0.31 288.0
162.51 960.60 0 0 -219.08 208.02 91.62 -0.10 -0.08 -0.59 1.37 -0.61 -0.32 288.5
156.51 961.29 0 0 -116.69 286.68 -173.26 0.16 -1.01 -1.39 0.94 -0.62 -0.63 289.0
150.92 961.93 0 0 -160.15 286.68 76.69 -0.55 -0.27 -1.32 0.87 -0.57 -0.23 289.5
146.08 962.48 0 0 32.03 286.68 14.18 -0.18 -0.18 -0.16 0.92 -0.62 -0.29 290.0
138.86 963.31 0 0 -221.71 286.68 276.75 -0.78 0.98 -1.07 1.21 -0.64 -0.22 290.5
133.49 963.92 0 0 267.96 286.68 82.11 0.28 0.44 -0.56 1.14 -0.67 -0.28 291.0
124.19 964.99 0 0 101.34 286.68 -203.24 0.28 -0.22 -1.36 1.06 -0.70 -0.46 291.5
120.63 965.40 0 0 52.82 205.41 -138.18 -1.07 0.04 -2.0 0.91 -0.58 -0.68 292.0
113.51 966.22 0 0 155.61 78.09 75.82 -0.33 0.33 -0.49 1.12 -0.69 -0.54 292.5
107.98 966.85 0 0 89.19 51.07 65.76 -0.31 -0.66 -0.4 1.13 -0.70 -0.51 293.0
100.62 967.70 0 0 -69.58 22.47 72.29 -0.43 0.50 -0.67 1.28 -0.67 -0.39 293.5
94.18 968.44 0 0 -13.45 25.46 -55.69 0.13 0.24 -0.21 1.43 -0.49 -0.64 294.0
87.72 969.18 0 0 286.68 18.57 19.35 -0.10 -0.39 -1.23 1.22 -0.68 -0.38 294.5
82.02 969.84 0 0 -137.02 98.94 171.20 0.20 -0.46 -0.62 1.27 -0.68 -0.43 295.0
76.03 970.53 0 0 19.18 24.81 80.24 0.32 0.04 -1.13 1.30 -0.67 -0.44 295.5
67.72 971.49 0 0 94.34 163.49 -250.25 0.82 1.25 -2.0 1.13 -0.68 -0.31 296.0
65.82 971.71 0 0 -30.83 -150.25 -16.20 -0.48 -0.08 -0.67 1.04 -0.47 -0.05 296.5
56.34 972.80 0 0 -74.74 -10.06 32.59 0.03 0.46 -0.27 1.29 -0.63 -0.59 297.0
50.23 973.50 0 0 85.66 198.25 -216.59 0.27 -0.47 -0.29 0.87 -0.63 -0.36 297.5
44.64 974.15 0 0 66.04 51.27 20.23 -0.36 -0.02 -1.55 0.85 -0.63 -0.43 298.0
39.89 974.70 0 0 54.52 19.84 42.38 -0.39 -0.33 -0.69 0.84 -0.57 -0.24 298.5
30.18 975.82 0 0 -235.35 -235.73 129.49 -0.49 -0.21 -2.0 0.98 -0.67 -0.35 299.0
24.86 976.44 0 0 20.51 -201.11 156.63 -0.20 0.14 -0.19 0.85 -0.61 -0.33 299.5
17.41 977.30 0 0 226.54 -183.03 -38.98 -1.35 0.31 -2.0 1.23 -0.69 -0.50 300.0
13.96 977.70 0 0 -206.17 -286.72 92.79 0.01 0.09 -0.72 1.02 -0.69 -0.49 300.5
1.45 979.15 0 0 -286.72 -143.87 286.68 -1.36 2.00 -2.0 0.79 -0.51 -0.22 301.0
5.97 978.63 0 0 -17.78 59.11 19.61 -0.12 0.72 -0.08 0.64 -0.10 -0.69 301.5
6.48 978.57 0 0 2.28 0.17 0.28 -0.61 0.81 -0.07 0.65 -0.11 -0.68 302.0
6.22 978.60 0 0 2.45 0.27 0.41 -0.61 0.81 -0.07 0.65 -0.11 -0.69 302.5
6.36 978.58 0 0 2.28 0.24 0.34 -0.59 0.82 -0.07 0.65 -0.11 -0.68 303.0
6.84 978.53 0 0 2.63 0.18 0.60 -0.61 0.80 -0.08 0.65 -0.11 -0.68 303.5
6.34 978.59 0 0 4.42 0.02 0.49 -0.61 0.82 -0.08 0.65 -0.11 -0.69 304.0
6.60 978.56 0 0 2.32 0.11 0.26 -0.61 0.81 -0.07 0.65 -0.11 -0.69 304.5
6.76 978.54 0 0 2.44 0.11 0.45 -0.61 0.81 -0.07 0.65 -0.11 -0.68 305.0
6.82 978.53 0 0 2.21 0.28 0.50 -0.61 0.82 -0.08 0.66 -0.11 -0.69 305.5
6.40 978.58 0 0 2.16 0.17 0.60 -0.61 0.82 -0.08 0.65 -0.11 -0.69 306.0
6.78 978.53 0 0 2.28 0.22 0.47 -0.61 0.82 -0.07 0.66 -0.11 -0.68 306.5
6.45 978.57 0 0 2.23 0.06 0.35 -0.61 0.82 -0.08 0.65 -0.11 -0.69 307.0
6.30 978.59 0 0 2.49 0.31 0.36 -0.61 0.82 -0.08 0.65 -0.11 -0.69 307.5
5.62 978.67 0 0 2.38 0.10 0.43 -0.61 0.81 -0.08 0.65 -0.11 -0.68 308.0
6.95 978.51 0 0 2.28 0.33 0.25 -0.61 0.82 -0.08 0.65 -0.11 -0.68 308.5
6.61 978.55 0 0 2.41 0.25 0.55 -0.60 0.81 -0.08 0.65 -0.11 -0.68 309.0
6.39 978.58 0 0 2.41 0.31 0.49 -0.61 0.82 -0.08 0.65 -0.11 -0.68 309.5
5.79 978.65 0 0 2.46 0.19 0.53 -0.61 0.81 -0.08 0.66 -0.11 -0.69 310.0
6.01 978.62 0 0 2.27 0.39 0.55 -0.61 0.82 -0.07 0.65 -0.11 -0.69 310.5
5.60 978.67 0 0 2.29 0.22 0.46 -0.61 0.82 -0.07 0.65 -0.11 -0.69 311.0
6.30 978.59 0 0 2.64 0.07 0.37 -0.61 0.82 -0.07 0.65 -0.11 -0.69 311.5
6.26 978.60 0 0 2.35 0.33 0.53 -0.61 0.81 -0.07 0.65 -0.11 -0.69 312.0
6.84 978.53 0 0 2.35 0.26 0.63 -0.61 0.82 -0.08 0.65 -0.10 -0.68 312.5
6.25 978.60 0 0 2.47 0.35 0.47 -0.61 0.82 -0.07 0.65 -0.10 -0.69 313.0
6.52 978.57 0 0 2.25 0.27 0.45 -0.61 0.82 -0.07 0.65 -0.11 -0.69 313.5
6.13 978.61 0 0 2.43 0.49 0.43 -0.61 0.82 -0.08 0.65 -0.11 -0.69 314.0
6.40 978.58 0 0 2.42 0.17 0.60 -0.61 0.81 -0.08 0.65 -0.11 -0.69 314.5
5.96 978.63 0 0 2.45 0.23 0.60 -0.61 0.82 -0.08 0.65 -0.11 -0.68 315.0
